timestamp,angular_velocity.x,angular_velocity.y,angular_velocity.z,linear_acceleration.x,linear_acceleration.y,linear_acceleration.z
0.11208558082580566,0.0027219292242079,-0.0005916934460401,0.0003740987740457,-0.4738191366195678,0.3428851664066327,9.784416198730469
0.11645078659057617,6.243353709578514e-05,0.0028225216083228,-0.0003634677268564,-0.4638082683086395,0.3250166773796094,9.817166328430176
0.11916613578796387,0.0002508684410713,0.0003699542139656,0.0008792034350335,-0.4675877094268799,0.3206692337989819,9.812755584716797
0.12388038635253906,0.0012354800710454,0.0001566088758409,0.0005810414440929,-0.4642497599124908,0.3370791971683514,9.797714233398438
0.12633323669433594,0.0004883095971308,0.0030317951459437,0.0003816382959485,-0.466136634349823,0.3534173071384442,9.776885032653809
0.1312248706817627,-0.0004680225392803,-0.0005844937404617,0.0001500858925282,-0.4814924299716949,0.3408494889736188,9.809595108032228
0.13477730751037598,-0.0001437250757589,-0.0003566604573279,-0.0031475063879042,-0.4776487052440643,0.3251357674598706,9.793855667114258
0.14233851432800293,-0.0001447125105187,0.0010120123624801,0.000794880092144,-0.45088592171669,0.3431741595268262,9.812530517578123
0.14735674858093262,0.0001685721799731,-0.000372560461983,-0.0008087800815701,-0.4527603387832641,0.3299155235290539,9.79240608215332
0.15304923057556152,-4.016212187707424e-05,0.0012291078455746,-0.0014365669339895,-0.47041916847229,0.3286288380622876,9.764878273010254
0.15651488304138184,0.001557208248414,0.0005936899688094,-0.0018627941608428,-0.4757077097892761,0.3022223114967358,9.781898498535156
0.16312789916992188,0.0012487868079915,0.0012198141776025,5.83124347031115e-05,-0.4674972891807556,0.3368231356143963,9.761980056762695
0.1669461727142334,0.0018768762238323,0.0001656941021792,-0.0012257657945156,-0.4661315381526947,0.3409715294837964,9.783025741577148
0.17319703102111816,-0.000998759525828,-0.0010069742565974,-0.0008148844353854,-0.4704818725585937,0.3212612569332135,9.803834915161133
0.1787574291229248,-0.0022751213982701,-0.0002614191034808,-0.0008062552660703,-0.4714232385158539,0.3165381550788891,9.785808563232422
0.18306183815002441,-0.0011074329959228,-0.0005821810336783,-0.0004899040795862,-0.4627739191055298,0.3290264904499066,9.774434089660645
0.18711209297180176,-0.0011058131931349,-0.001113835722208,-0.0007075718604028,-0.4680272042751312,0.334744453430177,9.779645919799805
0.19945597648620605,-0.0012149713002145,0.0003682569367811,0.001215944532305,-0.4556464552879333,0.3141051530838025,9.800535202026367
0.20545411109924316,-0.0007790114032104,0.0007067181868478,-0.0027206479571759,-0.4704507887363434,0.3351425826549542,9.80057144165039
0.21152257919311523,-0.000784280244261,0.0020805427338927,-0.0008013355545699,-0.4565856158733368,0.3131861686706555,9.795330047607422
0.2182011604309082,-0.0007872366113588,0.0009136475273407,-0.0011217519640922,-0.4689976572990417,0.3204177320003522,9.783943176269531
0.2273085117340088,-0.0003613008884713,0.0002674019197002,-0.0003795651718974,-0.4671472907066345,0.3164713978767407,9.80669116973877
0.22836804389953613,-0.000677291303873,0.0007010247791185,-0.0020813094452023,-0.4681093692779541,0.3183326721191418,9.817656517028809
0.23575091361999512,0.0002745801466517,0.001220396021381,0.0011130217462778,-0.4815113842487335,0.3187937140464795,9.822869300842283
0.24235177040100098,-0.0021794629283249,-0.0005776708130724,-0.0007092547602951,-0.4852882921695709,0.3117552697658551,9.800457000732422
0.25226736068725586,-0.0002439428353682,0.000156057649292,0.0011231317184865,-0.4843202829360962,0.3151817321777356,9.77101230621338
0.2566516399383545,0.0002782840747386,-0.0006905338377691,-0.0005979593843221,-0.4743115305900574,0.3380991816520703,9.786880493164062
0.2591536045074463,0.000491089944262,0.0003773345961235,-0.0005964539013803,-0.4589932858943939,0.3269063532352459,9.822039604187012
0.2665393352508545,0.0022982945665717,0.0024985165800899,0.0008030072785913,-0.4628204107284546,0.3380075991153729,9.8035306930542
0.27211570739746094,0.0011178391287103,0.000785868614912,0.0017505148425698,-0.4723603427410126,0.3257337808609021,9.769197463989258
0.2767939567565918,0.0006103552295826,0.0001613117055967,0.0002515749074518,-0.4728735983371734,0.3169998526573193,9.779821395874023
0.28084301948547363,0.0008094016229733,5.4979114793240977e-05,-0.0003785863518714,-0.4594469964504242,0.3131368756294262,9.802488327026367
0.2833225727081299,0.0008059527026489,-0.0013306190958246,-6.807222962379439e-05,-0.4374199211597442,0.3337705731391919,9.796910285949709
0.2871396541595459,0.0008123953593894,0.001440146472305,-0.0018585813231766,-0.4354933202266693,0.3499539494514477,9.805930137634276
0.29164743423461914,-0.0004684443119913,0.000797985761892,4.523154348134985e-05,-0.4590397179126739,0.358942508697511,9.825976371765137
0.29613184928894043,-3.984023351222277e-05,-0.0002634791890159,-0.0006977743469178,-0.4714321196079254,0.3470780253410351,9.81072235107422
0.2998535633087158,-0.0002481709234416,0.0004865898517891,-0.0015359609387814,-0.4862186908721924,0.3323857188224804,9.782517433166504
0.30323052406311035,0.0005743571091443,-0.0005107414908707,0.0015422240830957,-0.4602346420288086,0.3421112298965466,9.766865730285645
0.30652856826782227,-0.0023941937834024,-0.0014277142472565,-0.0004098061472177,-0.4700252413749695,0.3534452319145215,9.76897144317627
0.31306958198547363,0.0011276194127276,0.0002636912977322,0.0007892763242125,-0.4671341180801391,0.3466612100601208,9.797378540039062
0.3159201145172119,0.000169645412825,0.000587630784139,0.0004671877250075,-0.4523261189460754,0.321125924587251,9.82293701171875
0.3247842788696289,6.588432006537914e-05,0.0017672649119049,-0.0005927234888076,-0.4523588120937347,0.3146388530731213,9.788103103637695
0.324840784072876,-0.0012108137598261,-5.158089334145196e-05,-0.0005981083959341,-0.4804808795452118,0.3218975067138684,9.7706880569458
0.3269634246826172,-0.0020620957948267,0.0003754608915187,-0.000595579855144,-0.4775563776493072,0.3306266665458691,9.74459171295166
0.3310728073120117,-0.0015298934886232,-0.0017544262809678,-0.0008223210461437,-0.46894371509552,0.3435544073581707,9.742799758911133
0.3344588279724121,0.0015551005490124,-0.0003699867520481,0.000363232102245,-0.4512573182582855,0.3296561241149914,9.75083065032959
0.3415694236755371,0.0004886639071628,0.0004730809596367,0.0013249507173895,-0.4589715600013733,0.3232784867286694,9.78260898590088
0.3501744270324707,0.0002764401142485,-0.0005882180412299,0.0011054025962948,-0.463806539773941,0.33988255262375,9.80971908569336
0.35239458084106445,0.0001702054869383,0.0004657595709431,0.0017363443039357,-0.4667110741138458,0.3413738012313855,9.823559761047363
0.3574385643005371,-0.0006852163933217,-0.0002802923554554,0.0016259369440376,-0.4695461094379425,0.3150563836097729,9.796730041503906
0.3600888252258301,0.0007158046355471,-0.0001562174875289,0.0002665040083229,-0.4830279350280761,0.3238439559936535,9.775307655334473
0.36934828758239746,-0.0001476127654314,-0.0018621252384036,0.0004583769477903,-0.4751774370670318,0.3363621830940259,9.745615005493164
0.37197017669677734,0.0009155489387921,-0.0018631448037922,0.0004585538990795,-0.4847986698150635,0.3309195637702954,9.785953521728516
0.37527036666870117,0.001023402204737,-0.0012263108510524,0.000675993040204,-0.478633850812912,0.3288748860359204,9.816822052001951
0.38308024406433105,-0.0007967755664139,-0.0015411763451993,0.0005552433431148,-0.4566206336021423,0.3319444060325635,9.786954879760742
0.38693785667419434,-0.0003514703130349,0.001345740398392,-0.0005887234583497,-0.4704808890819549,0.3443120419979107,9.78696060180664
0.390500545501709,0.0024080721195787,0.0019694077782332,-0.0001568268053233,-0.4670518934726715,0.3296384513378155,9.75368309020996
0.3971731662750244,-0.001212511328049,-0.0006926085916347,0.0006741154938936,-0.4570537805557251,0.3103470802307141,9.785436630249023
0.4038245677947998,-0.0017492069164291,0.0003732859622687,0.000250706449151,-0.47332763671875,0.3207241594791424,9.809551239013672
0.41044044494628906,-0.0009947187500074,0.0025957487523555,0.0004675756208598,-0.4746556878089905,0.325664818286897,9.777793884277344
0.4176483154296875,-0.0002486316952854,-0.0019828011281788,-0.0001742322929203,-0.4569979608058929,0.2964625954628003,9.76736831665039
0.42152905464172363,-0.0013219593092799,0.0008983983425423,0.0017452565953135,-0.4847783148288727,0.30948704481125,9.76356601715088
0.42829442024230957,-0.0005777374608442,0.0003807263565249,0.0002548554912209,-0.4771010875701904,0.32665914297104,9.785985946655272
0.4352550506591797,-0.0014244590420275,0.0008011164609342,-0.0007017198950052,-0.4599417746067047,0.3375685513019574,9.796042442321776
0.4436464309692383,-0.0009995949221774,-0.0005886636790819,-0.0001793359406292,-0.4800047576427459,0.3271763324737561,9.779210090637209
0.44978904724121094,0.0008112338837236,-0.0028155334293842,-0.0010327324271202,-0.476145327091217,0.3386965394020093,9.757084846496582
0.45616960525512695,0.0014553962973877,-0.0004770844825543,0.0005754921585321,-0.478099375963211,0.3217926621437085,9.794007301330566
0.4591550827026367,-0.0009010792709887,0.0001479110214859,0.0017380970530211,-0.4843715727329254,0.3307427763938916,9.81630802154541
0.4665694236755371,-0.0007924617966637,-0.0011130790226161,-0.00017517991364,-0.4695675075054168,0.3092721104621899,9.815343856811523
0.47600483894348145,-0.0010040092747658,-0.0009170001139864,0.0021695354953408,-0.4661319255828857,0.3118147850036633,9.779389381408691
0.4830968379974365,0.000273730722256,0.0004718355194199,0.0012214262969791,-0.4536716341972351,0.3195681273937237,9.758090019226074
0.4885239601135254,0.0015536784194409,-4.802551120519649e-05,-0.0009054713882505,-0.4599409699440002,0.3332939147949231,9.788978576660156
0.4912106990814209,0.0005944846197962,-0.0007990521844476,0.0001506791450083,-0.4494006335735321,0.3399881124496472,9.789067268371582
0.4946103096008301,-0.0004617844242602,-0.0007867608219385,-0.0010223137214779,-0.4489120841026306,0.3347605466842663,9.790481567382812
0.4994394779205322,6.63241371512413e-05,-0.0017573063960298,-0.0012407470494508,-0.4537916183471679,0.326440751552583,9.802820205688477
0.506598949432373,-0.0007860200712457,-0.0013277309481054,-0.0005998420529067,-0.474323570728302,0.3231354951858532,9.815555572509766
0.5119132995605469,6.463879253715277e-05,-0.0034574510063976,-0.000182784628123,-0.4728657007217407,0.313183903694154,9.793219566345217
0.5161972045898438,0.0005964621086604,-0.0020747918169945,-0.0002822703681886,-0.4594315588474273,0.3309580385684979,9.777606010437012
0.5191819667816162,0.000279021449387,-0.0013279865961521,-0.0005965759046375,-0.4551395773887634,0.3356461524963391,9.796622276306152
0.5238797664642334,0.0001700791763141,-0.0011110269697383,-0.0002763494849205,-0.4494620263576507,0.3193891346454632,9.79753875732422
0.5266244411468506,0.0023162283468991,0.0007010941044427,-0.0017661424353718,-0.4672076106071472,0.330856114625932,9.81132698059082
0.5339210033416748,-0.0025932444259524,-0.0001615906367078,0.0002552173100411,-0.4560779631137848,0.3515490889549267,9.772015571594238
0.5392229557037354,6.098614539951086e-05,0.0015448427293449,-0.0001627164892852,-0.4584941864013672,0.3285291790962231,9.78947925567627
0.5435593128204346,0.0012395399389788,-0.0019644615240395,-0.0002828193828463,-0.4422016441822052,0.3133051097393048,9.763827323913574
0.5468387603759766,-0.0002589743817225,-0.0015433370135724,-0.0012322338297963,-0.4483582973480224,0.3348458409309399,9.758637428283691
0.5529093742370605,0.0001647159224376,0.0021874895319342,-0.0005763755179941,-0.4507991671562195,0.320898234844209,9.776678085327148
0.5562243461608887,-0.000670374254696,-0.000705050304532,-0.0010252087377011,-0.4580987989902496,0.3208833634853375,9.785696983337402
0.5624985694885254,-0.0007908018305897,0.0011248876107856,0.001328176818788,-0.4670610427856445,0.308572441339494,9.783198356628418
0.5678708553314209,-0.0008908244781196,0.0010184294078499,-0.0010169413872063,-0.4637218415737152,0.3367518186569226,9.762508392333984
0.5716454982757568,-0.0004705273313447,-5.372689338400955e-05,0.0003637764602899,-0.4713522791862488,0.331006705760957,9.771356582641602
0.5753390789031982,-0.0007859512697905,0.0015404042787849,0.0004730019718408,-0.4838316440582275,0.3285436332225812,9.782323837280272
0.5786433219909668,6.756000220775604e-05,-0.0001614948851056,-0.0013517788611352,-0.4661010801792145,0.3375633358955395,9.798236846923828
0.58306884765625,-0.0004680223064497,-0.0015497272834181,-0.0014535691589117,-0.4589981138706207,0.3197677731513989,9.805564880371094
0.5885970592498779,0.0003299751551821,0.0009179484914056,0.0008273967541754,-0.4661604762077331,0.3329852819442761,9.802172660827637
0.5911624431610107,0.0020888349972665,-0.0006766554433852,-0.0027192318812012,-0.4685463905334472,0.331362307071687,9.802309036254885
0.5973677635192871,0.0013418471207842,-0.0006880210130475,-0.0007021138444542,-0.4805161654949188,0.3193765282630932,9.799859046936035
0.599623441696167,-0.0005956018576398,-0.0001767255016602,0.0009910622611641,-0.4719670414924621,0.3121496438980115,9.784975051879885
0.6044309139251709,0.0029365099035203,4.235946107655794e-05,0.0024989554658532,-0.457578033208847,0.3283980488777173,9.815155029296877
0.6111817359924316,0.0022967364639043,0.0018559906166046,0.0015463670715689,-0.4656847715377807,0.3461706638336194,9.798134803771973
0.619786262512207,-0.0014354359591379,0.0030155959539115,-0.0001543401740491,-0.4633008241653442,0.3314194679260266,9.80916690826416
0.6243898868560791,-0.0014284186763688,0.0009053508983924,-0.0003761909902095,-0.4718724191188812,0.3271163105964673,9.780475616455078
0.6279764175415039,6.677035707980394e-05,-0.0011171289952471,-0.0001733768731355,-0.4737653732299804,0.3381644487380993,9.76621437072754
0.6311588287353516,-0.0002610124647617,-0.0003818948753178,0.0017485753633081,-0.4795189499855041,0.3448134660720837,9.776734352111816
0.6354975700378418,-0.0003659141948446,-0.0002759134513325,0.0022795205004513,-0.4632700681686401,0.3443163037300122,9.785809516906738
0.6392526626586914,0.0002710868720896,0.0002549576456658,0.0016466677188873,-0.4517765343189239,0.3237792551517499,9.779540061950684
0.643364667892456,0.000700443983078,0.0016469415277242,0.0002681571058928,-0.467161625623703,0.3140638470649731,9.811785697937012
0.6540608406066895,0.0018713790923357,0.0011126842582598,0.0004798341542482,-0.4728404283523559,0.3328793048858655,9.77578067779541
0.6597104072570801,-0.0007884672377258,0.0006965570501051,-0.0007991823367774,-0.4852509498596191,0.3242287635803235,9.779973030090332
0.6623547077178955,-0.0005715281004086,-0.0013200708199292,-0.0027273830492049,-0.4604536592960357,0.3236228525638592,9.817581176757812
0.6678755283355713,-0.0007866442902013,-0.0010052346624433,-0.0013422109186649,-0.4671362638473511,0.3269790410995495,9.81378936767578
0.6768410205841064,0.0001709981588646,-5.040830001235017e-05,-0.000695246271789,-0.4775965511798858,0.3309855461120617,9.770553588867188
0.6833088397979736,-0.0007915683090686,-0.0003705532290041,0.0009004944004118,-0.4718466401100158,0.3256393074989331,9.782892227172852
0.6893343925476074,0.0007029438274912,0.00101382820867,-0.000794235151261,-0.4666309952735901,0.3322594761848462,9.804295539855955
0.6957168579101562,0.0021896436810493,-0.0005866084247827,-0.0002608471550047,-0.4670793712139129,0.3418435454368603,9.767107009887695
0.6999156475067139,-0.0005691103870049,0.0003745802678167,-0.001325056888163,-0.4685377776622772,0.3360446095466626,9.78274154663086
0.7030785083770752,-0.0016480154590681,0.0004781045718118,-0.0003720964305102,-0.476199746131897,0.3282725512981427,9.806446075439451
0.7073860168457031,-0.0014267592923715,-0.0002622900065034,-5.221180617809292e-05,-0.485774278640747,0.3273653388023388,9.798405647277832
0.7112374305725098,0.0004816781147383,-0.0008064379217103,0.0010145045816898,-0.4872232377529144,0.3202033638954175,9.79311180114746
0.7184324264526367,-0.0004734833491966,0.0013241784181445,0.0011278488673269,-0.4566460847854614,0.3354313075542462,9.815598487854004
0.7251174449920654,-0.001425857655704,0.0010179965756833,-0.0019590184092521,-0.4637221395969391,0.3222219944000256,9.770427703857422
0.7285921573638916,-0.0013196333311498,0.0011275067226961,-0.002917124191299,-0.458920270204544,0.3184350728988659,9.759010314941406
0.7346339225769043,-0.0008910181932151,-4.479481140151645e-05,-0.0020674816332757,-0.476166307926178,0.3452596664428723,9.755792617797852
0.7401697635650635,-0.0006848060293123,-5.654362030327311e-05,0.0006980239413678,-0.473784863948822,0.3437244892120373,9.777666091918944
0.7434329986572266,5.918834358453751e-05,-0.000163565040566,0.0009125382639467,-0.466688334941864,0.3392184376716626,9.822787284851074
0.7489466667175293,0.000807641656138,-5.0294096581637866e-05,-4.665134474635124e-05,-0.4618628323078155,0.3311213850975049,9.818998336791992
0.7534060478210449,0.0002707079984247,-0.0001707723131403,0.0019785198383033,-0.4633045792579651,0.317299008369447,9.800889015197754
0.7594592571258545,-0.0019606319256126,0.0009023951133713,6.326567381620396e-05,-0.4575109779834747,0.3370625972747815,9.77011775970459
0.7600500583648682,-0.0026013031601905,0.0002573346137069,0.0014430955052375,-0.475196897983551,0.3275710940361035,9.752474784851074
0.763291597366333,0.0013381525641307,-0.0013295898679643,6.0575548559427424e-05,-0.4718715250492096,0.3159893155097973,9.773351669311523
0.768906831741333,0.0002804723917506,-0.0024931754451245,-0.0023988825269043,-0.4690310359001159,0.3083165884017956,9.779513359069824
0.7759675979614258,0.0020828049164265,-0.0005872491165064,-0.0003572972491383,-0.4632912278175354,0.3503528833389294,9.792075157165527
0.7801415920257568,-0.000263959984295,0.000587063608691,0.0004954747855663,-0.478066474199295,0.3385361731052411,9.759221076965332
0.7835922241210938,0.0001652622595429,0.0006900160806253,0.0007037054747343,-0.4722782969474792,0.3147776722908031,9.735947608947754
0.7878375053405762,0.0011233789846301,-0.0005900307442061,0.0003897063434123,-0.4632393419742584,0.2889086902141582,9.741470336914062
0.7929689884185791,0.0003782971180044,0.0010023373179137,0.0011341660283505,-0.4579933881759643,0.310695528984071,9.774822235107422
0.7959244251251221,-0.0008992835646495,-0.0030387933366,0.0007974584586918,-0.4628126621246338,0.3436650633811963,9.7916259765625
0.7999410629272461,0.0016527500702068,0.0001496113836765,0.0013491245917975,-0.4590239524841308,0.3330213427543652,9.819650650024414
0.8040342330932617,-0.0003655905602499,0.0015371404588222,0.000503113027662,-0.4552230536937713,0.3272472321987164,9.828673362731934
0.80716872215271,0.0013333853567019,5.004991544410595e-05,0.000710732769221,-0.452730655670166,0.3112227916717541,9.775426864624023
0.8146686553955078,0.0009107507066801,0.0010055705206468,0.000713846180588,-0.4541182518005371,0.3290329575538647,9.747482299804688
0.8206970691680908,-0.0012053553946316,-0.0007910468848422,-0.001750445459038,-0.4618240892887115,0.350932836532594,9.765484809875488
0.8277404308319092,0.0015469784848392,4.998344229534268e-05,-3.2505951821804053e-05,-0.4795928299427032,0.3177711367607129,9.809175491333008
0.8356029987335205,0.0020810514688491,-0.0004793089465238,-0.0001389626413583,-0.4686139225959778,0.3411269783973706,9.820236206054688
0.83823561668396,-0.0007975015323609,0.0007971078739501,-0.0003489227965474,-0.4627619087696075,0.3519018590450299,9.770879745483398
0.844120979309082,0.0017601647414267,-0.0003760083927772,-3.244215622544284e-05,-0.4522610604763031,0.3200567662715924,9.75932502746582
0.8545079231262207,6.085087079554796e-05,-0.0004775153356604,-0.0013098181225359,-0.4580477774143219,0.3153848052024853,9.802085876464844
0.8570096492767334,0.0012324409326538,-0.0037736210506409,-0.0015364438295364,-0.4547122418880462,0.3229945898056042,9.817859649658203
0.8600945472717285,-0.000896162353456,-0.0008993718656711,-0.0017388835549354,-0.4619190394878387,0.3171173334121716,9.837286949157717
0.8679928779602051,-0.0012152697890996,0.0015456629917025,-0.0011964202858507,-0.4541720151901245,0.3083495497703564,9.77838134765625
0.8776981830596924,0.0013288843911141,-0.0005916860536672,0.000721463933587,-0.4704703986644745,0.3225183486938489,9.810577392578123
0.8835890293121338,-5.732814315706492e-05,-0.000912022718694,-0.0006817886605858,-0.4839151203632355,0.3311961591243756,9.81214714050293
0.8864097595214844,-0.000784957781434,-4.713452653959416e-05,-0.001843758393079,-0.4838850200176239,0.3431369066238415,9.800296783447266
0.8928747177124023,-0.0003657893976196,0.0006926012574695,-0.0004553310573101,-0.488187313079834,0.352213501930238,9.81125831604004
0.8952846527099609,0.0011207991046831,0.0007852765265852,0.0021026181057095,-0.4833622574806213,0.3532704412937176,9.787033081054688
0.9001607894897461,-0.0006842910079285,-0.0007981281378306,-0.0006735944189131,-0.4704287350177765,0.3351769745349896,9.771305084228516
0.9029636383056641,-0.0010013642022386,0.0003741114051081,-0.0008817412890493,-0.4632763564586639,0.3274439573287976,9.787446022033691
0.9071459770202637,-0.0010059978812932,0.0010077708866447,0.0002804966643452,-0.4651298522949219,0.3318671584129345,9.761340141296388
0.9155311584472656,-0.0020724874921143,0.000467228150228,0.0026260884478688,-0.4666257202625274,0.3321992158889782,9.792665481567385
0.9192414283752441,-0.0010036061285063,-5.128409247845422e-05,-0.0008842353709042,-0.4642216265201568,0.3241256773471844,9.779314994812012
0.9270391464233398,-0.0022794269025325,-0.0014316727174445,-0.0013186070136725,-0.4488958716392517,0.3198851346969616,9.76699447631836
0.92769455909729,-4.399369936436415e-05,-0.0013264942681416,-0.0008915187790989,-0.4675732851028442,0.3179093301296246,9.785439491271973
0.9314007759094238,0.0005947736208327,-0.0006932755350135,-0.0005657030269503,-0.4680863916873932,0.3331298828125012,9.801692962646484
0.9353361129760742,-0.0003655629698187,5.024479469284413e-05,-0.0001398371532559,-0.4671221673488617,0.3254842758178723,9.80592155456543
0.9410154819488525,0.0018667660187929,-0.0002623824402689,-0.0003492748364806,-0.4675814509391784,0.3169600665569317,9.778858184814451
0.9432041645050049,0.0012344246497377,0.0003745553549379,-0.0005616317503154,-0.4599324762821197,0.3092712759971631,9.789210319519045
0.9479172229766846,0.001345157623291,-0.0008993378723971,-0.001099232584238,-0.4675802588462829,0.3145447671413434,9.783089637756348
0.953747034072876,0.0019739575218409,0.0008920668624341,-0.0010902755893766,-0.4713296592235565,0.3251987695693982,9.763666152954102
0.9569864273071289,0.0016622070688754,0.000483800395159,-0.0015192823484539,-0.4680708050727844,0.3265056610107434,9.788813591003418
0.9591608047485352,-0.0023842905648052,0.0029289294034242,-0.0006640455685555,-0.4656744301319122,0.3097925484180462,9.779226303100586
0.9631218910217285,-0.0001476933248341,0.0021821653936058,-0.0003432040102779,-0.490065723657608,0.3160450458526623,9.775853157043455
0.9689843654632568,-0.0012163018109276,5.359068745747206e-05,-0.0002470803447067,-0.4728497862815857,0.3265087008476269,9.78545093536377
0.9755029678344727,0.0005949690239503,-0.0023971521295607,-0.0006840899586677,-0.4647561907768249,0.3110595941543591,9.817689895629885
0.9797816276550293,0.0015531096141785,-0.0015458643902093,0.0003858036361634,-0.4518408477306366,0.3048662245273602,9.811493873596191
0.9835314750671387,0.0001701115397736,0.0001600212417542,-0.0006719655357301,-0.4642480909824371,0.3168756961822522,9.79824924468994
0.9877820014953613,0.0018706279806792,-4.360696766525527e-05,-0.0016272966749966,-0.468518316745758,0.3346976339817059,9.771240234375
0.9912528991699219,0.0004933411255478,0.0002597229322418,-0.0003486722707748,-0.4537176787853241,0.3327665925025952,9.784967422485352
0.9982824325561523,0.000381703255698,0.0011182274902239,-0.0005594650283455,-0.4718884229660034,0.3049956858158124,9.78530979156494
1.004333257675171,-3.974256105720997e-05,-0.0007945375400595,-0.0013157967478036,-0.4766480624675751,0.3045643568038952,9.776268005371094
1.0111215114593506,0.0019788036588579,-0.0023942582774907,-0.0001481678336858,-0.4738315939903259,0.3163833022117627,9.803406715393066
1.0168664455413818,-0.001317307469435,0.0009057442657649,-0.0007797800935804,-0.4705041646957397,0.3091796040534985,9.814776420593262
1.0236964225769043,0.0002810398582369,0.0013423964846879,-0.0024795590434223,-0.4800297915935516,0.33711937069893,9.77588176727295
1.0283925533294678,-0.0003585837548598,0.0020745215006172,-2.743676304817225e-05,-0.475207507610321,0.3471501469612134,9.776433944702148
1.0315344333648682,-0.0017466007266193,0.0023035891354084,-0.0019441139884293,-0.480010986328125,0.3339520096778882,9.757363319396973
1.0354804992675781,0.0014440164668485,-0.0001496738987043,-0.0017388500273227,-0.4742602705955505,0.302682012319566,9.775694847106934
1.0392396450042725,0.0037924139760434,0.0011195510160177,-0.0011964268051087,-0.4781337380409241,0.3049240112304699,9.799009323120115
1.0445518493652344,-0.0010020337067544,0.0013289370108395,0.0001762001775205,-0.47190061211586,0.3283389806747449,9.805325508117676
1.0474371910095215,0.0003814590163528,-0.0017625561449676,0.0012301607057452,-0.4810245633125305,0.3321492671966565,9.8138427734375
1.054257869720459,0.000814572093077,0.0014505168655887,-0.0022654323838651,-0.4838861227035522,0.3288533687591565,9.804306030273438
1.0563600063323975,-0.0013160994276404,6.197736365720607e-05,-0.0018496965058147,-0.4757472574710846,0.3245497345924389,9.802409172058104
1.059140682220459,-0.0007827370427548,0.0001673145452514,-0.0018485877662897,-0.4766597151756286,0.3141316771507275,9.77858829498291
1.0650451183319092,-0.0011087954044342,0.0010068588890135,0.0008134990930557,-0.4728367030620575,0.3155806064605725,9.77385139465332
1.0703492164611816,-0.0011079749092459,-0.0001629990874789,0.0004901671782135,-0.4551239609718323,0.344281315803529,9.77258014678955
1.0776426792144775,-0.0005788719281554,0.0005834022304043,-0.0004631569609045,-0.4642576873302459,0.3316355943679822,9.821365356445312
1.0834054946899414,0.0010119047947227,0.0015384536236524,0.0021975925192236,-0.4824232459068298,0.3259359598159802,9.809447288513184
1.0876562595367432,0.0010184874990954,0.0006061993190087,0.0012302165850996,-0.4715005755424499,0.3178622126579297,9.80151081085205
1.0944204330444336,0.0011295996373519,0.00122694845777,-0.0007757903076708,-0.4761724174022674,0.3261158168315899,9.771032333374023
1.1005189418792725,-0.0005707315867766,0.0005892622284591,-0.0010998370125889,-0.47620889544487,0.3274450600147259,9.797124862670898
1.1072065830230713,-0.0015342163387686,-0.0001563507248647,-0.0007863594219088,-0.4733342826366424,0.3245764672756207,9.797614097595217
1.1157758235931396,0.0009139966568909,0.0001628017053008,-0.0011013993062078,-0.4680853486061096,0.3418102860450757,9.791529655456545
1.118765115737915,0.0011265906505286,0.0002613405813463,0.0008171875961124,-0.4656853079795837,0.326996445655824,9.790519714355469
1.1247572898864746,0.0022915853187441,0.000791887869127,0.0006094025447964,-0.4680477976799011,0.3241885900497449,9.77674961090088
1.1314277648925781,-0.0025927415117621,-0.0006815970409661,-0.0006848033517599,-0.4556410610675812,0.3322958052158368,9.7705717086792
1.1397833824157715,-0.0019535413011908,-0.0002546834875829,-0.0012047295458614,-0.4690417945384979,0.3260594606399548,9.793789863586426
1.1434571743011475,-0.0020657437853515,0.0007953736931085,0.0006011095829308,-0.4565929174423218,0.3341437578201306,9.79530906677246
1.1507070064544678,-0.0008960834238678,-0.0005964824231341,0.001978279557079,-0.4484642446041107,0.3322800993919385,9.786269187927246
1.152052402496338,-0.0007895331364125,0.0016445599030703,0.0009258682839572,-0.4503558874130249,0.3265202045440686,9.78956699371338
1.1571829319000244,-0.001215107506141,-0.001439572777599,0.0006991266272962,-0.4733073711395263,0.3328173160552991,9.772457122802734
1.1605713367462158,0.0003868808853439,0.0007989219157025,6.639491766691198e-05,-0.4761577844619751,0.3371139168739331,9.77439022064209
1.167006015777588,0.0017631330993026,0.0001532476162537,0.0012410739436745,-0.4599374532699585,0.3050237298011792,9.787549018859863
1.1721701622009277,0.0005979913985356,-0.0008029438904486,0.0003913235850632,-0.4642090499401092,0.3131018877029431,9.779942512512209
1.1753599643707275,0.000495238462463,0.0001532973255962,-0.0002443301491439,-0.4752953648567199,0.3366062343120587,9.778178215026855
1.179680585861206,-0.0003621529322117,-0.000679409597069,-0.0023807506076991,-0.4785464107990265,0.3190057873725903,9.779935836791992
1.1826343536376953,-0.0006808318430557,-0.0003738615196198,-0.0009987968951463,-0.4737960994243622,0.3083632886409772,9.779001235961914
1.188439130783081,0.0010211002081632,-0.0007873537251725,-0.0013175415806472,-0.4690735042095184,0.3436658680439007,9.801871299743652
1.1911511421203613,0.0026174029335379,-0.0010145995765924,0.0002787411212921,-0.4647607207298279,0.3532007336616528,9.816232681274414
1.204732894897461,0.0021967673674225,-0.001222355174832,0.0001681917347013,-0.4661626815795898,0.3083816170692456,9.772326469421388
1.211212158203125,-0.0011100813280791,0.0009040985023602,-3.718631342053424e-05,-0.4565406143665313,0.3257872462272655,9.738192558288574
1.217085838317871,0.0010191629407927,0.0012171613052487,0.0010302290320396,-0.4708752632141113,0.3118971884250653,9.74950885772705
1.2212424278259277,-0.0016398845473304,-0.0011186175979673,0.0001649558544158,-0.4699698984622955,0.3132108449935925,9.778512001037598
1.2240338325500488,-0.0012105352943763,-0.0002604656037874,-0.001320740673691,-0.4656757414340973,0.3341671228408825,9.795251846313477
1.228788137435913,-0.0009956408757716,0.0014508187305182,-0.00312245846726,-0.4628375768661499,0.3379302620887768,9.809056282043455
1.2312898635864258,-0.0013174614869058,0.0011258983286097,-0.000576090067625,-0.4694458842277527,0.3390254974365246,9.778627395629885
1.236046552658081,-0.0003626516554504,-0.0018593432614579,-0.000264489557594,-0.478095531463623,0.3323614299297345,9.771909713745115
1.2399537563323975,-0.0004593955818563,-0.0030447435565292,5.293032154440917e-05,-0.4680431485176086,0.3180084824562085,9.771045684814451
1.2440731525421143,0.0002713075373321,-0.0010113127063959,0.0004866803064942,-0.4527444541454315,0.3175361752510083,9.769506454467772
1.2475483417510986,0.0027222130447626,-0.0016599406953901,0.0012337276712059,-0.4555844068527221,0.3226883411407483,9.789003372192385
1.2542591094970703,-0.0004692133516073,-0.0008063110872171,0.0010220748372375,-0.4599668085575104,0.3408157527446759,9.803326606750488
1.2569429874420166,-0.0004689228953793,0.0010090401628986,0.0001764399930834,-0.4522980451583862,0.3317390382289898,9.802825927734377
1.2605078220367432,-0.0004700140561908,5.113473162055019e-05,0.0002818740904331,-0.462776780128479,0.3146196007728589,9.781335830688477
1.2631666660308838,0.001020509051159,0.0008987902547232,0.0010306611657142,-0.4665931761264801,0.317091763019563,9.762828826904297
1.2677631378173828,0.0021901568397879,0.00015216920292,0.0010281112045049,-0.4604142308235168,0.31600520014763,9.791810035705566
1.2730350494384766,0.0019800406880676,-0.0003735473146662,6.577186286449436e-05,-0.4589634537696838,0.3270151615142834,9.788084983825684
1.279865026473999,6.089778617024422e-05,-0.0003791176714003,0.0011269939132034,-0.4785811305046081,0.3543375730514538,9.7795991897583
1.2835345268249512,0.0009203205700032,-0.0002614678815007,-0.0009978497400879,-0.4690798223018646,0.32692849636078,9.81415557861328
1.289327621459961,-0.0023816172033548,5.551765207201232e-05,-0.0008961027488112,-0.4676229655742645,0.3249626159667981,9.818927764892578
1.2919793128967285,-0.0007855833973735,-0.0001561621320433,-0.0004728152416646,-0.4690342247486114,0.3313208222389233,9.792769432067873
1.2953739166259766,-0.0017497937660664,0.0001570492167957,0.0010259016416966,-0.4642171859741211,0.3322901129722607,9.785694122314451
1.3002314567565918,-0.0003699144581332,-0.0008075832738541,0.0020862920209765,-0.4756845831871032,0.3256435990333569,9.779458045959473
1.3031260967254639,0.0001701419241726,-0.0005893457564525,0.0010198950767517,-0.4714803993701935,0.3158852458000195,9.82070541381836
1.307183027267456,-4.352722316980362e-05,0.0006855631945654,0.0002810349687933,-0.4604952335357666,0.3176878392696393,9.845455169677734
1.313011646270752,0.0015553515404462,0.0021832268685102,-0.0005610189400613,-0.4595212042331695,0.3115010857582104,9.840287208557127
1.31642484664917,-0.0011035042116418,0.0013309814967215,-0.0005726623348891,-0.4647272527217865,0.309357285499574,9.786502838134766
1.3193073272705078,0.001557444804348,-0.0002691200352273,-0.0004611033946275,-0.4742508828639984,0.3243313133716595,9.753241539001465
1.3248660564422607,-0.0001506695989519,0.0003727682051248,0.0002765082754194,-0.4665628373622894,0.319020062685014,9.757095336914062
1.3280971050262451,-4.589860327541828e-05,-0.0010225907899439,0.0020804475061595,-0.4441807568073272,0.3216432929039013,9.814597129821776
1.3315238952636719,-0.0001492532901465,0.0004741655720863,0.000704969279468,-0.4648118317127228,0.3415526747703564,9.85598087310791
1.3354058265686035,-0.0012090906966477,0.00196712044999,0.0001753186807036,-0.4849177896976471,0.3349421024322522,9.843092918395996
1.3396828174591064,-0.0007892650319263,0.0026011790614575,0.0010324702598154,-0.4815773665904999,0.331962049007417,9.862567901611328
1.3520903587341309,-0.0014259478775784,0.0021840981207787,-0.0009937328286468,-0.4747694730758667,0.3160040080547345,9.79647731781006
1.3538188934326172,0.0008105781744234,-0.001008924562484,-0.00079175690189,-0.472241461277008,0.2967661619186413,9.711824417114258
1.3616282939910889,0.0001709356438368,-0.0019693076610565,0.0001591136679053,-0.4713843464851379,0.3366750478744519,9.77136516571045
1.3618299961090088,-0.0027036098763346,-0.0019676459487527,0.0004745777696371,-0.4657294154167175,0.3617799878120434,9.826116561889648
1.3638386726379395,-0.0015317428624257,0.0005782136577181,0.0012317281216382,-0.4628566205501556,0.355103135108949,9.821321487426758
1.3710229396820068,0.0003855492686852,0.0027068476192653,0.0012472425587475,-0.4647730588912964,0.3335956633090985,9.818402290344238
1.3730418682098389,-0.0011009146692231,0.0006877774721942,-0.0007946719415485,-0.46715047955513,0.3231493830680859,9.797401428222656
1.383110523223877,-0.0004683308070525,-0.0020746479276567,-0.0014337315224111,-0.4656176567077636,0.3184743821620953,9.78495979309082
1.3835477828979492,0.0018718698993325,-0.0012331162579357,0.001439020037651,-0.4704093039035797,0.3304635286331189,9.76799201965332
1.383641242980957,-4.377402365207672e-05,-0.0009115633438341,0.0011204755865037,-0.4732856452465057,0.3371633291244519,9.771775245666504
1.3878870010375977,-0.0008962916908785,-0.0010154338087886,0.0008001159876585,-0.4824243187904358,0.3394803106784833,9.78459930419922
1.3911778926849365,0.0012350536417216,-0.0001617256202735,-0.0002593793906271,-0.4619040489196777,0.3403504490852368,9.817373275756836
1.395421028137207,-3.793463110923767e-05,-0.0001526668784208,-0.0015379390679299,-0.4604444503784179,0.3135507404804242,9.80971622467041
1.3994064331054688,0.0001700555440038,0.000680774799548,0.0013364567421376,-0.4680374562740326,0.3102766871452344,9.786405563354492
1.4040555953979492,0.0013454569270834,-0.0013352293753996,0.0007002186030149,-0.4733412563800812,0.3275541663169873,9.776488304138184
1.407179832458496,-0.0008933166973292,-0.0002639035228639,-0.0007936996407806,-0.4646939039230346,0.3356996774673474,9.776062965393066
1.411151647567749,-4.2536878027021885e-05,5.380634684115648e-05,-4.583690315485001e-05,-0.4737794101238251,0.3275575041770947,9.783123016357422
1.4170241355895996,0.0010225400328636,-0.0002590959193184,0.0005896831862628,-0.4829816222190857,0.3278512358665478,9.793578147888184
1.4241273403167725,0.0001710165524855,5.842180689796785e-05,-0.001640707720071,-0.4761844277381897,0.3380562067031872,9.782715797424316
1.4281485080718994,0.0010232843924313,0.0028283756691962,-0.0019476427696645,-0.4914793670177459,0.3433606624603283,9.772744178771973
1.4350035190582275,0.0003859437420032,0.0003785025910474,-0.001106952317059,-0.4924251139163971,0.350051671266557,9.775171279907228
1.436201572418213,-0.0012139769969508,5.072203930467368e-05,5.837297067046165e-05,-0.4886379241943359,0.3266112804412854,9.781227111816406
1.4409382343292236,-0.0011116695823147,-0.0011320009361952,0.0019688988104462,-0.4795911908149719,0.3116913437843335,9.80159854888916
1.4444868564605713,-0.0004693994997069,0.0002602583263069,0.0003811330534517,-0.4671370983123779,0.299210309982301,9.809670448303224
1.4480247497558594,-0.000470575178042,-0.0006979144527576,0.0006956639699637,-0.4676125645637512,0.3278985023498547,9.809321403503418
1.4543688297271729,0.0013414142886176,0.0004733666428364,0.0002878210507333,-0.4700715243816376,0.3387979269027722,9.83974838256836
1.4569051265716553,-0.0008930109906941,0.0017601096769794,-0.0012086508795619,-0.4690745174884796,0.3144368529319775,9.824461936950684
1.459395170211792,0.0001658406108617,0.0006863037706352,0.0007037143222987,-0.4633048176765442,0.3130892813205731,9.805481910705566
1.4663195610046387,-0.0024958841968327,-0.0022946016397327,0.0006858417764306,-0.4570587575435638,0.3073773980140698,9.796433448791504
1.4712154865264893,-0.0001524882391095,-0.0003746639122255,0.0001656827516853,-0.4704470634460449,0.3375856578350079,9.780396461486816
1.4763998985290527,0.0012312093749642,-0.0016507948748767,-0.0011185724288225,-0.4858010113239288,0.3484590053558362,9.80752944946289
1.4801506996154785,-0.0002621955936774,0.0006855155224911,0.0007035941816866,-0.4847936332225799,0.3404439687728894,9.783711433410645
1.4836645126342773,-0.0008881915127858,-0.0005772224394604,-0.0025006304495036,-0.4842950403690338,0.3482187390327466,9.764769554138184
1.4893147945404053,-4.468183033168316e-05,0.0001605339348316,-0.0020731668919324,-0.4785975217819214,0.3448265790939343,9.772327423095703
1.4942638874053955,0.0022952454164624,0.0012219104683026,0.000179152470082,-0.4675469994544983,0.3347576856613171,9.769054412841797
1.500396490097046,0.0019808788783848,-0.0004712203517556,-0.0014240611344575,-0.4565999209880829,0.3293926715850842,9.796558380126951
1.5070607662200928,-0.0002612865064293,-0.0013416693545877,0.0019737272523343,-0.4575281143188476,0.3481202721595776,9.78052806854248
1.5130970478057861,-0.0010030405828729,-0.002927022287622,-0.0002693268470466,-0.454639583826065,0.3471715152263653,9.780023574829102
1.5192718505859375,0.0003767018788494,-0.0007036254974082,0.0010176440700888,-0.4685669243335724,0.3058927059173596,9.811232566833496
1.5251765251159668,0.0019756816327571,0.000574062927626,0.0004898211918771,-0.439490407705307,0.3229411244392407,9.824596405029297
1.5315816402435303,0.0001643593423068,0.0020671293605118,0.0014562392607331,-0.4370216131210327,0.3450682163238537,9.820921897888184
1.534459114074707,-0.0019602137617766,0.0004822619375772,-0.0014290413819253,-0.4589859545230865,0.3150656819343579,9.791276931762695
1.5400121212005615,-0.0004724367754533,0.0006947930669412,-0.0013225981965661,-0.4670654535293579,0.312282979488374,9.774192810058594
1.5440258979797363,-0.000151805463247,0.0007951598381623,-0.0002587414346635,-0.4790390431880951,0.3170606493949902,9.768936157226562
1.552835464477539,0.0015683320816606,0.0007074231980368,-0.0006528235971927,-0.4747669100761413,0.3366639614105237,9.769451141357422
1.5530250072479248,-0.0004687716718763,-0.0005798116908408,-0.001214800402522,-0.4776560664176941,0.3465510010719311,9.807093620300291
1.5595602989196777,5.5108917877078056e-05,0.0007918413029983,0.0011299164034426,-0.444635808467865,0.334152936935426,9.79901123046875
1.5656349658966064,-0.0003672712482511,0.000363981060218,0.0015533487312495,-0.4589204490184784,0.3414739966392529,9.769110679626465
1.5688624382019043,-0.000792542938143,-0.0004820571630261,0.0002709315158426,-0.4771250188350677,0.3347413241863263,9.77663516998291
1.5725789070129395,-0.0005804864922538,0.000473886670079,0.0004855133593082,-0.4632799029350281,0.3365861773490918,9.789487838745115
1.5773530006408691,0.000488608260639,0.0015515682753175,-0.0022736187092959,-0.461410254240036,0.3298376798629773,9.802786827087402
1.5807628631591797,-0.0003633924061432,-0.0004780470626428,-0.0012180618941783,-0.4805534183979034,0.3216018378734601,9.824578285217283
1.5837068557739258,5.931116174906492e-05,0.0006862844456918,0.0003855410031974,-0.4714496731758117,0.3192522525787366,9.817910194396973
1.5877494812011719,0.0002715570735745,0.0017559345578774,-0.0005696532316505,-0.4747738242149353,0.3198453187942517,9.793220520019531
1.5913608074188232,0.0001698858104646,0.0009038064163178,-0.0004630517214536,-0.4613900184631347,0.3304042220115674,9.785674095153809
1.5966331958770752,-0.0019606635905802,0.000479101203382,-0.000899164006114,-0.4632914364337921,0.3174204230308545,9.799375534057615
1.5995662212371826,-0.0001551870955154,0.0005807965062558,0.0001691924408078,-0.4738044738769531,0.3250761628150952,9.800369262695312
1.6040689945220947,0.0016576421912759,-0.0002668559900484,-0.0002530291676521,-0.4805441498756408,0.3211791515350354,9.81601333618164
1.6071627140045166,-0.0001489598071202,0.0018623739015311,-0.0023767789825797,-0.4662064909934997,0.3130983114242566,9.81031894683838
1.6147446632385254,0.0011213527759537,-0.0005907546728849,0.0007002060301601,-0.4647066593170166,0.3045608103275311,9.787461280822754
1.6211507320404053,6.522203329950571e-05,0.0005864180857315,-0.0004676338285207,-0.4628545641899109,0.3341701626777661,9.796610832214355
1.6282267570495605,-0.00078991567716,-0.0003691932652145,-0.0015344633720815,-0.4733415246009826,0.3102085888385785,9.810293197631836
1.6313245296478271,0.0008059992687776,0.0021817109081894,-0.0006744558922946,-0.4671010971069336,0.3083092272281659,9.799361228942873
1.6355061531066895,0.0004812210099771,0.0007911610300652,0.0014505563303828,-0.4761818945407867,0.3232305049896252,9.785675048828123
1.6392669677734375,0.0011257274309173,-0.000376152631361,-0.0004694843664765,-0.4680208563804626,0.3252457082271588,9.764745712280272
1.6434428691864014,-0.0004763691686093,-0.0002733587753027,0.0009122868068516,-0.4575168192386627,0.2997953593730939,9.783699035644531
1.6475026607513428,0.0003761685220524,0.0008972915820777,0.0010272096842527,-0.4622648954391479,0.3109096586704266,9.762344360351562
1.6545121669769287,0.0011168484343215,-0.0012183341896161,-4.656706005334839e-05,-0.4809026718139648,0.3237028121948254,9.777047157287598
1.657707691192627,-0.0007924117380753,-0.0004783134208992,-0.0004732380621135,-0.4910537600517273,0.3408230543136609,9.808520317077637
1.659553050994873,-0.0010063828667625,-0.00080320663983,0.0002741278149187,-0.4804508686065674,0.3366814851760876,9.772409439086914
1.6632850170135498,0.0010150021407753,0.0009027206106111,-3.693299368023883e-05,-0.4565160572528839,0.3281121850013745,9.762927055358888
1.6680083274841309,0.0011259537423029,-4.8626854550093616e-05,-0.0016369423829019,-0.4723074436187744,0.29227313399315,9.75991916656494
1.672882318496704,0.0013306251494213,0.000150398176629,0.0012384913861751,-0.4699041545391083,0.2918147444725049,9.746139526367188
1.6769168376922607,0.0010219108080491,-0.0010088642593473,-0.0012120557948946,-0.4814478754997253,0.3323214054107678,9.77999210357666
1.6805408000946045,-0.0005744780646637,-0.0004769776714965,-0.0014315997250378,-0.4776665270328522,0.3280096352100384,9.799471855163574
1.6836836338043213,-0.0017501089023426,0.0020759440958499,-0.0008868388831615,-0.4737901091575622,0.3198689818382275,9.79047966003418
1.6878464221954346,-0.0020733084529638,0.0013287052279338,-0.0002534622326493,-0.4752225875854492,0.3022373020648968,9.766201972961426
1.6942625045776367,0.0005891720647923,0.0004751915985252,-3.758491948246962e-05,-0.4689661860466003,0.3066071271896374,9.758121490478516
1.7000739574432373,-0.0003706406569108,-0.0019767084158957,0.0012294752523303,-0.4666270911693573,0.3069635033607495,9.78807544708252
1.7073230743408203,-4.424597136676312e-05,0.0005852945614606,-0.0007738792337477,-0.4618952870368957,0.3183828592300427,9.802416801452637
1.7151908874511719,0.0010104081593453,0.0008984836167655,0.0015585282817482,-0.444135844707489,0.3194075524806988,9.778763771057127
1.7184720039367676,0.0006990994443185,-0.0018563541816547,-0.0023863113019615,-0.4795112907886505,0.3381571769714367,9.763521194458008
1.7257483005523682,-0.0011084669968113,-0.0001611596089787,-0.0001482609659433,-0.4685541987419128,0.3236798048019421,9.79578685760498
1.729379653930664,-0.0005831362213939,-0.0002828528522513,0.0022988920100033,-0.4661249220371246,0.3323355317115796,9.78818702697754
1.7344212532043457,0.0011239052983,-0.0008991515496745,-0.0015319306403398,-0.4857758581638336,0.3136025667190564,9.798580169677734
1.7407891750335693,0.0013362553436309,0.0004765071207657,-0.0004674126394093,-0.4676735699176788,0.3221843838691723,9.80008316040039
1.747572898864746,-0.0019644261337816,-0.0012287066783756,0.0004861219786107,-0.4637319445610046,0.329010069370271,9.77822494506836
1.7574496269226074,-4.1712308302521706e-05,0.000359573867172,0.0011270977556705,-0.4795511960983276,0.3227467834949505,9.792820930480955
1.763397216796875,5.489599425345659e-05,0.0007866199593991,0.0017745387740433,-0.4594632387161255,0.316961467266084,9.800941467285156
1.7689614295959473,0.0013197442749515,0.0012131871189922,8.90824012458323e-05,-0.468936413526535,0.3242052197456372,9.780056953430176
1.7727172374725342,0.0015524748014286,-4.8732617869973264e-05,-0.0006729844026267,-0.472828060388565,0.3357318639755261,9.781576156616213
1.7754719257354736,0.0025052775163203,0.0001508421846665,0.0010323054157197,-0.4723296165466308,0.3538671731948865,9.775480270385742
1.7799780368804932,0.0022935788147151,-0.0004795717541128,-0.000251037068665,-0.4647075533866882,0.3237192928791058,9.785316467285156
1.7842950820922852,-0.0011112493230029,-0.001645402982831,-0.0016489410772919,-0.4613551199436188,0.3026901483535779,9.786673545837402
1.7878015041351318,0.0027150763198733,-0.0039979428984224,0.0011170441284775,-0.4680322706699371,0.3208715319633496,9.776755332946776
1.7928831577301025,0.0004879714106209,-0.0014382428489625,-0.0007923557423055,-0.4742970466613769,0.3399476408958447,9.795846939086914
1.7983038425445557,0.00090784416534,4.805781645700344e-05,0.0007094875909388,-0.478613406419754,0.3427541851997387,9.80629062652588
1.804516315460205,-0.0014300439506769,0.0015383120626211,0.000391146633774,-0.4929936826229095,0.321144223213197,9.831324577331545
1.8112139701843262,0.0004852462443523,5.0204398576170165e-05,-0.0003594327718019,-0.4517655372619629,0.3280068039894116,9.786758422851562
1.8169848918914795,0.0012329289456829,-0.0014410717412829,0.0003818501718342,-0.4551377296447754,0.3179332315921795,9.79384708404541
1.8208582401275635,-0.0012209495762363,0.002069916576147,-3.3853575587272895e-05,-0.4642635583877563,0.3279120326042187,9.810505867004396
1.823761224746704,-0.0018536275019869,-0.0011245523346588,-0.0002625491470098,-0.4623209834098816,0.3269926309585583,9.80007266998291
1.8298840522766113,0.000912690651603,0.0004731118679046,-0.0006789215840399,-0.479574054479599,0.318368196487428,9.803799629211426
1.8317348957061768,0.0018620647024363,0.0014321987982839,0.0009257807396352,-0.4833914637565613,0.315987288951875,9.803304672241213
1.836007833480835,0.0012308604782447,-0.0005889798048883,0.000278765335679,-0.4838487803936004,0.3236676454544079,9.79386043548584
1.8391430377960205,0.0014422291424125,0.0011174710234627,-0.0003517232835292,-0.4838403463363647,0.3151523172855389,9.77527904510498
1.8435227870941162,0.001866445178166,5.358288763090976e-05,0.0006065657362341,-0.4732697904109955,0.3127646446228039,9.775150299072266
1.8475713729858398,0.002289846772328,4.836771404370674e-05,0.0007031308487057,-0.474295049905777,0.3103265166282666,9.782407760620115
1.8542604446411133,0.0002709290711209,0.0011063184356316,0.0015610046684741,-0.4680666923522949,0.3236662149429333,9.795249938964844
1.8575434684753418,0.0004836248699575,0.0007969960570335,-0.0001436779275536,-0.4743052124977112,0.3312701582908642,9.810514450073242
1.8606300354003906,0.0006895679398439,-0.0020786682143807,-5.003111436963056e-05,-0.4584338963031769,0.3213362693786633,9.786688804626465
1.8631925582885742,-0.0004774673143401,-0.0011022281832993,-0.0005802097730338,-0.4575594663619995,0.3241471052169812,9.798223495483398
1.8671340942382812,0.0006969514652155,-0.0002652108087204,0.0002772901207208,-0.4589546620845794,0.3217769861221325,9.79149055480957
1.8729567527770996,0.001337576424703,-0.0032430961728096,-0.0015417113900184,-0.4656358957290649,0.3180267214775097,9.777677536010742
1.8795957565307617,-0.0003617306938394,0.0005774115561507,0.000704888254404,-0.496303528547287,0.3256297111511242,9.79000473022461
1.8839621543884277,0.0005932165076956,-0.0011237169383093,0.0010122843086719,-0.4891076385974884,0.3237271606922162,9.785225868225098
1.8912875652313232,0.0021812850609421,-0.0005896528600715,0.000697374343872,-0.4786179959774017,0.3288916349411023,9.803824424743652
1.8969285488128662,-0.0015375977382063,-0.0011278474703431,0.0017579477280378,-0.4661810398101806,0.3274725973606122,9.804293632507324
1.900662899017334,-0.0018592304550111,0.0003572010900825,0.0026156194508075,-0.4680831432342529,0.3207618892192853,9.806156158447266
1.9073255062103271,0.0012243370292708,0.0016432530246675,0.0003898930735886,-0.4747281074523926,0.3166030049324048,9.775754928588867
1.916163444519043,-0.0015314157353714,0.0007995827472768,-0.0021722079254686,-0.4650719761848449,0.3352553546428692,9.76162815093994
1.9185690879821777,-0.0005822065286338,0.0012169783003628,0.001555688213557,-0.4733031690120697,0.3289844393730176,9.78719997406006
1.9262664318084717,5.779170896857977e-05,-5.689414683729408e-05,0.0001699025742709,-0.462321013212204,0.3222358524799359,9.797170639038086
1.9314935207366943,-0.0014309778343886,0.0005871501052752,-0.0005726427771151,-0.4632929563522339,0.3413017988204968,9.812976837158203
1.9390225410461426,-0.0018529526423662,0.002177505288273,-0.0006732298061251,-0.4694347977638244,0.299955725669862,9.751465797424316
1.9433870315551758,-0.0008979840204119,0.0006866170442663,6.543938070535652e-05,-0.4655928015708923,0.3143148720264447,9.75248908996582
1.9506428241729736,-0.0012269499711692,-0.0004984624683856,0.0011224383488297,-0.4570615887641907,0.3247400224208844,9.772006034851074
1.9525504112243652,0.0012036000844091,0.000570768257603,-0.0002960884012281,-0.4629874229431152,0.3352909088134778,9.816699981689451
1.9611718654632568,-0.0002573725068941,0.0006935041164979,-0.0011025834828615,-0.4819914698600769,0.3135043680667889,9.81992244720459
1.9691517353057861,0.0006917738355696,0.0025864206254482,0.0015691793523728,-0.4766136705875397,0.3592128455638897,9.759859085083008
1.9718832969665527,-0.0019706734456121,0.0005829605506733,0.0015448648482561,-0.4871592819690704,0.3266208767890942,9.775861740112305
1.9765808582305908,-0.0004742532037198,-0.0015440790448337,-0.0004809531383216,-0.486660897731781,0.3176019191741955,9.76336669921875
1.984281301498413,-0.0005894162459298,-0.0012324056588113,0.0022911829873919,-0.4460670948028564,0.3418779373168957,9.798718452453612
1.9876642227172852,-0.0025981008075177,0.0003721468383446,6.978912279009815e-05,-0.4556039571762085,0.3509715199470532,9.789267539978027
1.9945495128631592,0.0010181487305089,0.0001635056687518,-0.0017421501688659,-0.4594836235046386,0.3006259202957165,9.817049026489258
2.0010056495666504,-0.0014263100456446,0.0016455308068543,-0.0005687619559466,-0.44705331325531,0.3083149194717419,9.809008598327637
2.0079598426818848,-0.0001551085151731,-0.0015411360654979,-0.0009010406211018,-0.4642266929149627,0.33999001979828,9.786810874938965
2.017094850540161,0.0016602067044004,-0.0005801440565846,-0.0024897477123886,-0.4638029336929321,0.3311751484870923,9.832415580749512
2.0247862339019775,5.926808807998896e-05,-0.0001594283967278,-0.0006827781908214,-0.4748027324676513,0.3197489380836499,9.81947135925293
2.0278546810150146,0.0012288879370316,-0.0005888828891329,-4.428485408425324e-05,-0.4757281839847564,0.3394576311111462,9.79676628112793
2.0317740440368652,-0.0007855414878576,-0.0006922606844455,-0.0007915254682302,-0.4814194440841675,0.3313898444175732,9.786256790161133
2.0352375507354736,0.0001604395220056,-0.002498731482774,-0.000916133634746,-0.4776833653450012,0.3319594264030469,9.779969215393066
2.043179512023926,-0.0020701172761619,0.0019639241509139,0.0004940275102853,-0.4743070006370544,0.3336795568466199,9.80859375
2.05025053024292,0.0002652331022545,0.001118020270951,0.0006005722098052,-0.4633641839027405,0.3671098649501813,9.803502082824709
2.0577285289764404,-0.0014298723544925,-0.0006975826108828,0.0017359778285026,-0.4943132102489471,0.3286957144737256,9.78183937072754
2.0600786209106445,-0.0003635440953075,-0.0016483798390254,-6.878934800624827e-05,-0.4813878238201141,0.3187463879585278,9.763742446899414
2.064517021179199,-0.000893160351552,-0.0001541385427117,-0.0010349252261221,-0.4575272500514984,0.3200478553771985,9.77695369720459
2.0720417499542236,-0.0004666657187044,-0.0013237933162599,-0.0012456583790481,-0.4757061898708343,0.3319008350372326,9.81131362915039
2.0755114555358887,0.0016616127686575,0.0005951991770416,-0.0019794031977653,-0.4761919677257538,0.3232797384262097,9.814584732055664
2.0809078216552734,-0.0012091846438124,0.0011324739316478,-0.0029389967676252,-0.4809095561504364,0.3262971043586743,9.778026580810549
2.0841124057769775,-0.0006793306674808,0.0015527163632214,-0.0015533757396042,-0.4823423624038696,0.3115052580833447,9.774171829223633
2.088379383087158,-0.0008960510604083,0.0010079820640385,0.0008932766504585,-0.476567268371582,0.3173312246799481,9.752321243286133
2.0941760540008545,-0.0004602975677698,-0.001623420510441,-0.0009400038979947,-0.4798850119113922,0.3308369815349591,9.74754524230957
2.09946346282959,0.001342014526017,-0.0008950185147114,-0.0021985357161611,-0.4757186472415924,0.3184620440006268,9.816935539245604
2.104512929916382,0.0020960683468729,-0.0006788371829316,-0.0013602110557258,-0.4690102934837341,0.3166331648826611,9.814077377319336
2.1072182655334473,0.0011285579530522,-0.0005813578609377,-0.0010243561118841,-0.4723447859287262,0.3256530165672314,9.808406829833984
2.115673542022705,0.0005966594908386,-0.0001502164523117,-0.0017685140483081,-0.4760959148406982,0.3334859013557446,9.767552375793455
2.121124505996704,-0.0001620677066966,0.0012328150914981,-0.0003934446722269,-0.4613053500652313,0.3118777871131909,9.780766487121582
2.1247353553771973,0.0018685879185795,-6.286066491156796e-05,0.0016374108381569,-0.4617993831634521,0.3200239539146435,9.778926849365234
2.1286580562591553,0.001019402174279,0.0013283673906698,0.0005781566724181,-0.4378581941127777,0.3444502949714673,9.777627944946287
2.13114070892334,-0.0004646216984838,0.0017587936017662,-0.0014485917054116,-0.4350389540195465,0.3347291350364697,9.809822082519531
2.1397907733917236,0.0018727097194641,-0.0002658392186276,-0.0001725009642541,-0.4809688031673431,0.3093851804733288,9.808273315429688
2.147469997406006,0.0011285414220765,-0.0003645440447144,-0.0017694658599793,-0.467559278011322,0.3266206979751599,9.80215835571289
2.1576874256134033,-0.0012125221546739,-0.0005749663105234,-0.001775408629328,-0.4694536924362182,0.3094587624073041,9.788788795471191
2.1602790355682373,0.0004896260797977,-0.0014315962325781,-0.0014551635831594,-0.4618023037910461,0.3132776021957409,9.791192054748535
2.1683387756347656,-0.0007853410206735,-0.0012128842063248,-0.0026275001000612,-0.4517785608768463,0.3275902867317212,9.79838752746582
2.1712379455566406,0.0027207599487155,-0.0011222166940569,0.0012095607817173,-0.4833398759365082,0.3328619599342358,9.79598617553711
2.180884838104248,0.0005933511420153,-0.001652160892263,0.0003507612273097,-0.4565253853797912,0.3180912137031567,9.781705856323242
2.184229850769043,0.0025111781433224,0.0005812598392367,0.0010035159066319,-0.4565587043762207,0.3155763149261487,9.804957389831545
2.1918137073516846,0.0013400843599811,0.0001558180665597,0.0001497967168688,-0.4632547199726105,0.3356907963752759,9.801692962646484
2.20454478263855,-0.0005622761091217,0.0005928112659603,-0.0003858162090182,-0.4517373740673065,0.3246893286705029,9.801727294921877
2.210623025894165,-0.0019637600053101,-0.0013307486660778,0.0002367934212088,-0.4713707864284515,0.3251743316650403,9.791135787963867
2.216468095779419,-0.0007913769222795,-0.0014480139361694,0.0024753715842962,-0.4732748866081238,0.3271229267120373,9.781238555908203
2.219176769256592,-0.0002577997511252,0.0010058142943307,0.0013220477849245,-0.461309552192688,0.3132838010787976,9.781157493591309
2.2281110286712646,0.0017639582511037,0.0002615730627439,0.00121581973508,-0.4766512811183929,0.3328490853309643,9.793548583984377
2.2319247722625732,-0.0006846851902082,-0.0008173859096132,0.0020573670044541,-0.4694254994392395,0.3318823277950299,9.787470817565918
2.2353503704071045,0.0008131684735417,0.0016553776804357,-0.0011294339783489,-0.4588741958141327,0.3352864086627972,9.779351234436035
2.2431092262268066,0.00123026012443,4.76107816211881e-05,0.0014272616244852,-0.4632397890090942,0.3127686977386487,9.78586769104004
2.2508606910705566,-0.0015259777428582,0.002075876109302,0.0004672529175877,-0.4746642708778381,0.325202137231828,9.788813591003418
2.256821632385254,0.0018679697532206,0.0021776480134576,0.0005818093195557,-0.4775788187980652,0.3031870722770703,9.785737037658691
2.259247064590454,0.0014458039076998,-0.0001739532453939,-0.0003977017477154,-0.4746789932250976,0.3109681308269513,9.762412071228027
2.2666280269622803,0.0008071735501289,-0.0005829305155202,-0.000386840198189,-0.457959771156311,0.3261862397193921,9.778312683105469
2.2726995944976807,0.0018705361289903,0.0018633712315931,-0.0010134852491319,-0.4641918241977691,0.3347195982933056,9.78733730316162
2.2761285305023193,-0.0003593197325244,0.0003814011579379,-0.0020845490507781,-0.478521466255188,0.3233098685741437,9.776816368103027
2.280846118927002,-4.372152034193277e-05,-0.0011127239558845,-0.0010286355391144,-0.4771178364753723,0.317031502723695,9.790567398071287
2.2840561866760254,-0.0004730708897113,-0.0019740611314773,0.0006716470234096,-0.4685489237308502,0.3246107101440442,9.80391788482666
2.2883670330047607,0.0022774320095777,-0.0003554493305273,-0.0020719170570373,-0.4610764980316162,0.3479495346546185,9.79946517944336
2.2959752082824707,0.0005924099823459,-0.001435718499124,-7.475959137082082e-05,-0.4805084764957428,0.3298359513282788,9.808663368225098
2.299341917037964,-0.0006833679508417,0.0005896615330129,-0.0007029389962553,-0.4775899648666382,0.3136767745018017,9.789584159851074
2.3072028160095215,-0.0008960214909166,-0.0010088863782584,-0.0002844878472387,-0.4684846997261047,0.3142045736312878,9.77677059173584
2.314868450164795,-0.0001636054366827,0.0006897368002682,0.0006813569925725,-0.4637004435062408,0.3398692607879651,9.80879020690918
2.3244388103485107,-0.0006799353286623,0.0014467316213995,-0.002189400838688,-0.4847869277000427,0.3274927735328686,9.798629760742188
2.3287763595581055,0.0011265660868957,-0.0004731515655294,-0.0005985121242702,-0.4828386604785919,0.3170699477195752,9.777215003967283
2.3322415351867676,0.002404486760497,0.0004791492247022,-6.039999425411231e-05,-0.4593558609485626,0.3247244358062756,9.777724266052246
2.336455821990967,-0.0006826514145359,0.0001639776164665,-0.0011345939710736,-0.455592930316925,0.3227493166923535,9.791510581970217
2.3397648334503174,0.0007021371275186,-0.001229798188433,0.0009964038617908,-0.4575041830539703,0.3170284628868115,9.780978202819824
2.3493947982788086,-0.0002724280348047,0.0007023803191259,0.000681722536683,-0.4742785692214966,0.3431570529937756,9.809136390686035
2.356835126876831,-0.0006855707615613,0.0003724729758687,0.000889875460416,-0.4771148264408111,0.3126315772533429,9.806610107421877
2.3600945472717285,0.0001671526115387,-0.0004789151716977,3.630993887782103e-05,-0.4808854460716247,0.3276625871658337,9.760987281799316
2.3707754611968994,0.0009181438945233,-0.002069006441161,-0.0013553695753216,-0.4900128543376922,0.3328616321086896,9.773855209350586
2.37213397026062,0.0004902685177512,-6.622582441195835e-05,0.0008906014263629,-0.4857950508594513,0.3274544477462781,9.8023681640625
2.376919984817505,0.0023006738629192,0.0011064192513003,0.0015396950766444,-0.460339218378067,0.3178593516349804,9.804739952087402
2.3843436241149902,-0.0011220887536183,0.0001554696937091,0.0005683815106749,-0.4489491283893585,0.3178384006023419,9.80904483795166
2.384387254714966,-0.0005740174092352,-0.0007970489095896,-0.0003934665583074,-0.4608376622200012,0.3126908242702496,9.784749031066896
2.3884122371673584,-5.382578819990158e-05,-0.0009111571125686,0.0015247333794832,-0.4622547626495361,0.3193989396095288,9.78046417236328
2.392594814300537,0.0013438528403639,0.0005915518850088,-0.0014448729343712,-0.4723269343376159,0.3165269792079938,9.781875610351562
2.4056811332702637,0.0002759179333224,0.0017638877034187,-0.0015488546341657,-0.4556154012680053,0.3183551430702221,9.799983978271484
2.4057424068450928,0.0013366531347855,0.0027156472206115,-0.0001602740958333,-0.4555993676185608,0.3375418782234204,9.788663864135742
2.406040668487549,0.0011259828461334,0.0028193942271173,0.0002669831737875,-0.4771012365818023,0.3571223020553601,9.791067123413086
2.408534049987793,0.0020825394894927,-0.0009053883841261,0.0001471359282732,-0.4852467775344848,0.3433260917663586,9.781479835510254
2.4166245460510254,0.0011238860897719,0.00090451532742,4.491303116083134e-05,-0.4685222804546356,0.3221997022628796,9.79994297027588
2.4192910194396973,-0.0016422860790044,0.0006883545429445,0.000678779091686,-0.4656592905521393,0.3603900372982037,9.808202743530272
2.4280428886413574,0.0009002233273349,-0.0012247688136994,0.002487719990313,-0.4813532829284668,0.3479817211627972,9.813343048095703
2.432011842727661,0.0001702865120023,-0.0019740879070013,0.0001393761485815,-0.4862745106220245,0.3069075345993054,9.801765441894531
2.4352803230285645,0.000274462334346,-0.0015384177677333,-0.0013513700105249,-0.4708879590034485,0.3084228038787854,9.775172233581545
2.4432263374328613,-0.0011158174602314,0.0004760001029353,-7.015047594904905e-05,-0.47951740026474,0.3494756221771252,9.779634475708008
2.453643560409546,0.0001651557395234,-0.0015455582179129,0.0004590563476085,-0.4660786390304565,0.3189787864685071,9.763812065124512
2.4575417041778564,-0.0004786780336871,-0.0029353182762861,0.0005537294782698,-0.4737436771392822,0.3279024362564099,9.783770561218262
2.4602818489074707,-0.0010101291118189,5.243066698312774e-05,0.0012086336500942,-0.4766284227371216,0.3399654030799878,9.776686668395996
2.4638116359710693,0.0006984001374803,-0.0004857328603975,0.0006794044747948,-0.4756827354431152,0.3427958488464367,9.786687850952148
2.467318058013916,-0.0005788190755993,0.0003718801308423,0.0002566277980804,-0.4704791307449341,0.3407681584358227,9.812814712524414
2.4760994911193848,0.0012320152018219,0.0003776043886318,-0.0014451444149017,-0.4661005735397339,0.3036131858825696,9.775151252746582
2.4830758571624756,0.0030412680935114,-0.0009011008660309,0.0003627124242484,-0.4794532656669616,0.3194693922996533,9.756664276123049
2.4841244220733643,0.0009384716395288,-0.0004756649141199,-0.0010232585482299,-0.4752406477928161,0.3347158432006848,9.749463081359863
2.488520622253418,0.0001693622907623,0.0019757403060793,-0.0011189337819814,-0.4412219226360321,0.3413650393486035,9.782500267028809
2.4959614276885986,0.001877499744296,0.0006890364456921,-0.0016573690809309,-0.4436247646808624,0.3177860677242291,9.81371784210205
2.4991614818573,-0.000472935847938,5.1318726036697646e-05,0.0001510893926024,-0.4766685962677002,0.3306930661201489,9.8080415725708
2.507132053375244,0.0014397846534848,-0.0012283392716199,0.0007845200598239,-0.4594074785709381,0.3232018351554883,9.777609825134276
2.5148725509643555,-0.0017471717437729,-0.002712502842769,-0.000501228030771,-0.4762037098407745,0.305323898792268,9.819350242614746
2.5210962295532227,-0.0006857893895357,5.158875137567514e-05,-0.000486257020384,-0.4666350781917572,0.3345059752464306,9.813312530517578
2.5245630741119385,0.0002698720199987,-0.0019669758621603,-0.0004968116991221,-0.4814204573631286,0.3618998825550091,9.784424781799316
2.5289247035980225,-0.0001572936307638,0.0009010073263198,0.0010066516697406,-0.4823629856109619,0.3566846251487744,9.772050857543944
2.5322070121765137,-0.0013290201313793,0.0005851743044331,-0.0004876609891653,-0.4689338505268097,0.3208427429199231,9.76048469543457
2.5368027687072754,-4.59596049040556e-05,0.0002785455435514,-0.0026152986101806,-0.4651504158973694,0.303089350461961,9.77895164489746
2.540407657623291,-0.0001490167342126,-0.0003841551952064,-0.000501450151205,-0.4546873271465301,0.309165418148042,9.799468040466309
2.544135570526123,-0.0015425740275532,0.0019604656845331,0.001006681472063,-0.4493718147277832,0.3364576995372784,9.802438735961914
2.554885149002075,0.0010128986323252,0.0020703540649265,0.0006968243978917,-0.4704658091068268,0.3168134689331067,9.810394287109377
2.5573832988739014,0.0009069775696843,0.0002650163951329,-0.0002683699131011,-0.4771012365818023,0.2968843877315533,9.775598526000977
2.564340114593506,0.0011200113222002,-0.0017571416683495,-6.154505535960176e-05,-0.4708317518234253,0.3194369673728955,9.754823684692385
2.5694069862365723,0.000788860139437,-0.0010258955880999,0.0008986769244074,-0.4920917451381683,0.3316074609756482,9.819464683532717
2.5769026279449463,-0.0007965995464473,-0.000268877018243,0.0001555997878313,-0.4508360624313354,0.321632504463197,9.801946640014648
2.5818848609924316,-0.000902296975255,5.422154208645217e-05,-0.0005885260179638,-0.4661049246788025,0.313139468431474,9.775280952453612
2.5840325355529785,-0.0023925174027681,0.0008024735143408,-0.0004841876216232,-0.4632282853126526,0.3179810941219342,9.760592460632324
2.5920891761779785,0.0015468059573322,-0.0001566275605,-0.0011176341213285,-0.4661136567592621,0.3255566060543072,9.778212547302246
2.5957422256469727,0.0003848395426757,4.742882447317239e-05,-0.0002722735516726,-0.4584928750991821,0.3267509341239941,9.816641807556152
2.6039464473724365,-0.0026060929521918,0.0009018557611852,-0.000263350084424,-0.461382508277893,0.3320839107036603,9.812509536743164
2.607884407043457,5.784409586340189e-05,0.0020826009567826,-0.0020667179487645,-0.4493898153305053,0.3230900168418896,9.797765731811523
2.616365909576416,-0.0016453259158879,0.0008958357502706,0.0006956034339964,-0.4489268660545349,0.3336164355278027,9.789685249328612
2.6192028522491455,0.000587488815654,-5.529675399884581e-05,5.442928522825242e-05,-0.4680711627006531,0.3350669145584118,9.792119979858398
2.629845142364502,-5.475454963743687e-05,0.0006866283365525,0.0005901935510337,-0.4761439561843872,0.3461701869964612,9.768845558166504
2.631918430328369,-5.376350600272417e-05,0.0002628341317176,0.0002757785841822,-0.4718504250049591,0.3423279821872723,9.770707130432127
2.6394379138946533,0.0003721165703609,0.0003720059175975,-0.0004710108041763,-0.5001079440116882,0.3250300884246838,9.789190292358398
2.6438474655151367,-0.0006886410992592,-4.538329085335159e-05,-0.0018570148386061,-0.4752455055713653,0.3354911804199231,9.80113124847412
2.6539900302886963,-0.001221413956955,-0.0014331247657537,-0.0012249983847141,-0.4742749035358429,0.3278418183326733,9.800193786621094
2.65415358543396,-0.0016489655245095,-0.000486085365992,0.0011105188168585,-0.4976678192615509,0.328457832336427,9.773547172546388
2.6583268642425537,-0.0014375958126038,0.0008999806013889,0.0007000472396612,-0.4914635717868805,0.3140739202499402,9.77443504333496
2.660067319869995,-0.000261801527813,0.0001595644862391,-0.0021757227368652,-0.4713588654994964,0.3159776329994214,9.779264450073242
2.6639130115509033,-0.0010118345962837,-0.000366469786968,-0.0011134329251945,-0.4646914601325989,0.323109030723573,9.784043312072754
2.6674487590789795,0.0003708393196575,-0.0023974177893251,0.0002636979334056,-0.4603727459907532,0.3197886347770703,9.779278755187988
2.6734955310821533,-0.0017580745043233,0.0007966873818077,0.000592965632677,-0.4728220701217651,0.333660423755647,9.781720161437988
2.676115036010742,-0.0007970576407387,0.000261990353465,-0.0002544918097555,-0.456045925617218,0.3145525455474866,9.768820762634276
2.680870532989502,0.0013268628390505,0.0005752459401264,-4.095211625099189e-05,-0.4594556987285614,0.3259642124176037,9.789761543273926
2.68418288230896,0.0029256520792841,0.0016422271728515,0.0009277868084609,-0.4565793573856354,0.330174505710603,9.810715675354004
2.6882715225219727,-0.0011150173377245,-0.0009057710994966,0.0001644236035645,-0.4690552353858948,0.3219906389713299,9.822066307067873
2.6911447048187256,0.0011026869760826,-0.0003920149174518,0.001441407483071,-0.4623412787914276,0.3219931125640881,9.797375679016112
2.6993355751037598,0.0039945817552506,-0.0008997487020678,-0.0014233905822038,-0.4599217772483825,0.3287808895111096,9.795989990234377
2.7070443630218506,0.0014276439324021,-0.0012217400362715,0.0010131769813597,-0.4641109108924866,0.3107113540172589,9.768357276916504
2.715630531311035,0.0006912047392688,-0.0011222789762541,0.0006959163583815,-0.4652048945426941,0.3206059336662304,9.807313919067385
2.720412254333496,-0.0007938895141705,0.0003709397860802,-0.0007863128557801,-0.4647361636161804,0.3277360796928418,9.811599731445312
2.7250092029571533,-0.0005880907410755,-5.204498302191509e-05,-0.0011108852922916,-0.4848147332668304,0.3248619735240948,9.816781997680664
2.730085611343384,-0.0006893961690366,0.001537159201689,0.0007033552974462,-0.4757304787635803,0.3177544176578534,9.800140380859377
2.7336080074310303,-0.003246787469834,0.0015402911230921,0.0003838306292891,-0.4641860127449035,0.3217051923275006,9.773551940917969
2.7362077236175537,-0.0020695005077868,-0.0006859951536171,-0.0005845669656991,-0.4733284413814544,0.3163715600967419,9.790106773376465
2.7411201000213623,-0.0015428366605192,-0.0014396563638001,0.0001587579026818,-0.4724014103412628,0.329707443714143,9.810136795043944
2.744619369506836,-0.0014350058045238,0.0003768760943785,-0.001002974808216,-0.4657038152217865,0.3387140035629284,9.819668769836426
2.747540235519409,-0.0015421905554831,0.0004770372470375,-0.0002566985785961,-0.4685398638248443,0.326881527900697,9.790151596069336
2.7549679279327393,-0.001545017119497,-0.0017620720900595,0.0012231771834194,-0.4775973260402679,0.3126158118247998,9.773926734924316
2.7573134899139404,-0.0007971259765326,-0.0001607156009413,5.933316424489023e-05,-0.4742433130741119,0.3121968507766736,9.76301383972168
2.7600371837615967,-0.0009008049964904,0.0011280298931524,-0.0020538922399282,-0.4924682378768921,0.3140313029289258,9.778676986694336
2.7638351917266846,-4.7799316234886646e-05,-0.0010006721131503,-0.0028253279160708,-0.4680075049400329,0.3074373006820691,9.769147872924805
2.7692527770996094,0.0010137687204405,0.000371273024939,-0.0001481575891375,-0.4618260860443115,0.3082163929939282,9.791459083557127
2.7719762325286865,5.647318903356791e-05,0.0002693141577765,-0.0006816391833126,-0.463802307844162,0.3382139503955853,9.826767921447754
2.7770283222198486,0.0016484854277223,0.001659961650148,-0.0005676201544702,-0.4671589136123657,0.3278074264526379,9.820564270019531
2.781348943710327,0.0008035477367229,6.048119394108624e-05,-0.0023854763712733,-0.4666305780410766,0.3167589306831372,9.80621337890625
2.784172296524048,0.002612859243527,5.601905286312084e-05,-0.0015319245867431,-0.4531943500041961,0.3159663975238812,9.766789436340332
2.78831148147583,-5.620799493044615e-05,-0.0004723710007965,-0.0004750434309244,-0.4560371041297912,0.3264385461807263,9.765377044677734
2.792083740234375,0.0010126510169357,-0.0014327333774417,-0.0007950570434331,-0.4560478031635284,0.3394052386283887,9.76974391937256
2.79575252532959,-0.0018788076704367,-0.000577030761633,-0.0009029335342347,-0.4546175301074981,0.3302734494209302,9.779354095458984
2.8012797832489014,-0.0007975794142112,0.0003677420900203,0.0008071269840002,-0.461860179901123,0.3339735269546521,9.807207107543944
2.8045616149902344,-0.0023930883035063,0.001753510441631,0.0008139060810208,-0.4613730311393738,0.3283011317253125,9.794374465942385
2.8078935146331787,0.000374597730115,0.0005845928099006,-4.139496013522156e-05,-0.4713996946811676,0.3297675251960766,9.785298347473145
2.8111684322357178,-0.0033493260852992,0.001230388181284,-0.0014251638203859,-0.4713702797889709,0.3164075314998639,9.776697158813477
2.819164752960205,0.0003715167404152,0.002407185267657,-0.0007672677747905,-0.4747742712497711,0.3230640888214123,9.778518676757812
2.829285144805908,-0.0007959374925121,-0.0015432700747624,-5.248095840215664e-05,-0.4761568009853363,0.2920221686363232,9.773699760437012
2.8320088386535645,-0.0032444491516798,-0.0014458898222073,0.0005821385420858,-0.4742557406425476,0.3196721076965344,9.784714698791504
2.8394973278045654,-0.0035691908560693,0.0022805840708315,0.0034790011122822,-0.4656981825828552,0.314852833747865,9.79846477508545
2.8433525562286377,-0.0023909974843263,0.0006750853499397,0.0022892095148563,-0.4838222861289978,0.3073157966136944,9.773208618164062
2.851299524307251,-0.001758366706781,-0.00134707626421,0.0002618636935949,-0.4699843227863312,0.3306719064712536,9.783238410949709
2.8525960445404053,0.0006937473663128,-0.0004790172679349,-0.000259640160948,-0.4671010673046112,0.3498027920722973,9.793404579162598
2.8575096130371094,-0.0002626460045576,0.000588767521549,-0.0008938619866967,-0.4761527180671692,0.347986161708833,9.7705717086792
2.860119104385376,0.0017549390904605,-0.0017445128178223,-5.690753459930398e-05,-0.474735677242279,0.326509088277818,9.76859188079834
2.869119644165039,-5.212449468672276e-05,-0.0021752070169895,-0.0010127401910722,-0.4627766907215118,0.3053394854068768,9.783710479736328
2.8691742420196533,-0.0002640890888869,-0.0012153058778494,-0.001650518272072,-0.4603841006755829,0.3162895143032086,9.794166564941406
2.87282395362854,0.0008000439265742,0.000477757275803,0.0004909420385956,-0.4819253385066986,0.3311479985713971,9.793251991271973
2.8761861324310303,-0.0004816957516595,0.000907422916498,-0.0006805378943681,-0.4924606382846832,0.3287483453750622,9.794628143310549
2.8811235427856445,0.0015491542872041,0.0004848649259656,-0.0015308624133467,-0.4699579179286957,0.3162897825241101,9.796988487243652
2.88415265083313,0.0006897122366353,-0.0010163811966776,0.0011260751634836,-0.4633386731147766,0.3113593459129345,9.825457572937012
2.8884780406951904,0.0016459177713841,-0.0001682080910541,0.0004848237149417,-0.4566482007503509,0.3258147835731518,9.807666778564451
2.8914122581481934,0.0009144414216279,-0.0012161429040133,-0.0015413146466016,-0.460372120141983,0.3249186277389538,9.792292594909668
2.8959927558898926,0.0006916389102116,-0.0005904125864617,0.0011235666461288,-0.473320871591568,0.3244399130344403,9.79176139831543
2.899186134338379,0.0003747246810235,5.48535026609897e-05,-0.0004717828705906,-0.4853070676326751,0.3210434913635266,9.800765991210938
2.9071476459503174,-0.0005808250280097,0.0009098954615183,-0.0013190526515245,-0.4675818085670471,0.2909491062164319,9.795415878295898
2.916079044342041,0.0023951404727995,0.0006865400355309,0.0010260944254696,-0.4671423435211181,0.3324582576751721,9.818400382995604
2.9212257862091064,0.0011227951617911,0.001548581640236,-0.0008874712511897,-0.4719263613224029,0.3391274213790906,9.826468467712402
2.9264273643493652,-0.0009024841710925,0.0012221370125189,0.0003846092149615,-0.4834256172180176,0.3304900527000439,9.829268455505373
2.9289371967315674,-0.0016498232726007,0.000906832749024,-0.0005802661180496,-0.4819647669792175,0.3229011297225964,9.813058853149414
2.9321365356445312,-0.0007973541505634,0.0003658803761936,0.0011239098384976,-0.4546427428722381,0.3220937848091137,9.783639907836914
2.936383008956909,-0.0002639461308717,-5.166541086509831e-05,-0.0005785305984318,-0.4685678780078888,0.3377470970153821,9.811262130737305
2.94075870513916,5.8907666243612766e-05,0.0001643875148147,-0.0002577644772827,-0.468975305557251,0.3345692157745373,9.780839920043944
2.9442317485809326,-0.0004753044340759,0.0007992830942384,0.0002774912863969,-0.4651108086109161,0.3212898373603833,9.748927116394045
2.9506888389587402,0.0010178377851843,-0.001210115966387,-0.0028143017552793,-0.4550878405570984,0.3264678418636334,9.7627534866333
2.9540817737579346,0.0006956805591471,0.0008044457645155,-0.0013173259794712,-0.4532095193862915,0.3474352359771741,9.783267974853516
2.9594507217407227,0.000372958893422,0.0010093614691868,0.0003860001452267,-0.45895716547966,0.3278256654739392,9.7798490524292
2.9634294509887695,-0.0015371044864878,-0.0017470141174271,-0.0021817316301167,-0.4589866697788238,0.3019158542156231,9.796356201171877
2.969076156616211,0.0006953190313652,-0.0001540664816275,-0.0012176623567938,-0.4403107166290283,0.321090877056123,9.786944389343262
2.972034454345703,0.0014421943342313,-0.0007927089463919,-0.0012182742357254,-0.4498540461063385,0.3359316289424908,9.788439750671388
2.976830244064331,-0.0020753042772412,0.0003710133605636,0.000700500793755,-0.475211888551712,0.3216280937194836,9.775010108947754
2.9812209606170654,-0.0015391005435958,0.0012300584930926,-0.0003668093122541,-0.4684944152832031,0.3067634403705609,9.777351379394531
2.984496831893921,0.0004823032068088,-0.0008006248390302,0.0001642098650336,-0.4666301310062408,0.3292037546634686,9.795018196105955
2.9939818382263184,5.1752664148807526e-05,-0.0015426194295287,0.0004901615902781,-0.468468576669693,0.3503226637840283,9.779955863952637
2.9960577487945557,-0.0001576211070641,0.0012246288824826,-3.99793498218061e-05,-0.4900256693363189,0.3312339186668408,9.766935348510742
3.000105142593384,0.0002744602388702,7.057812763377977e-05,-0.0038776909932494,-0.4756974279880523,0.3225705027580273,9.771169662475586
3.007417917251587,0.0014394376194104,0.0003673729370348,0.0010239123366773,-0.4484587013721466,0.3415757417678845,9.805974960327148
3.010956048965454,-0.0009018460987135,0.0018642428331077,-0.0003593047149479,-0.4809477627277374,0.3478351235389721,9.797396659851074
3.01948618888855,0.0022896314039826,5.16469590365887e-05,0.0002776691690087,-0.4767104387283325,0.3242895603179944,9.821046829223633
3.0288941860198975,-5.0826347433030605e-05,0.0016504968516528,-0.0001463694497942,-0.4719126224517822,0.3411362171173108,9.796884536743164
3.0320444107055664,-0.0009010917274281,0.0020793725270777,-0.000886358320713,-0.4642180800437927,0.3316304683685315,9.779741287231444
3.0400948524475098,0.0005896149086765,-0.0007934301393106,-0.0008997204713523,-0.4494008421897888,0.3119662404060376,9.793450355529783
3.04341983795166,0.0004825342912226,0.0002734246663749,-0.0001499010249972,-0.458420068025589,0.3200498223304761,9.794880867004396
3.0516810417175293,-0.0004748773062601,-0.0005887766601517,-0.0002610348165035,-0.4795030653476715,0.3273310065269482,9.780191421508787
3.056875467300415,-0.0006869370117783,-0.0004741291049867,-0.0012210025452077,-0.464225172996521,0.3263168931007397,9.792047500610352
3.0595128536224365,0.0009090338135138,5.913566565141064e-05,-0.0014289929531514,-0.4651859402656555,0.3224928975105298,9.79250144958496
3.0665817260742188,0.0016563885146752,0.0013380721211433,0.0003877975977957,-0.4724276065826416,0.3220238089561474,9.780635833740234
3.0771803855895996,0.0014380593784153,-0.0013295004609972,5.504768341779725e-05,-0.4637320637702942,0.3306610584259045,9.782999992370604
3.08099102973938,-0.0010160935344174,-0.0004926145775243,0.0029268893413245,-0.4886402487754822,0.3367988467216504,9.798189163208008
3.084094285964966,0.001325438148342,0.0008900393149815,0.0032604704611003,-0.4886439144611358,0.3349140882492077,9.795330047607422
3.0884127616882324,0.0004856165032833,-0.0015354512725025,-0.0018643671646714,-0.4790782630443573,0.3410746455192578,9.809149742126465
3.0960824489593506,-0.0024929367937147,0.0014393344754353,-0.0022796378470957,-0.4719289541244507,0.3444244265556347,9.807276725769045
3.0993571281433105,-0.0001479580532759,-0.000154735695105,-0.0010129641741514,-0.4700022637844085,0.3197391629219067,9.764396667480469
3.1072540283203125,0.0006927758222445,5.116814281791456e-05,0.0005928357131779,-0.4775994718074798,0.3345295190811169,9.77251148223877
3.115389823913574,-0.0005864333361387,0.0003656098851934,-0.0001483056694269,-0.4714241027832031,0.3377839326858532,9.796722412109377
3.121316909790039,0.0009079290321096,-0.0012212470173835,-0.0004751598462462,-0.483340859413147,0.3320665359497082,9.786226272583008
3.1282355785369873,-0.0010122134117409,0.0017538615502417,0.0012347516603767,-0.4728368520736694,0.3330176770687115,9.787211418151855
3.1312363147735596,0.0012207311810925,0.0007961324299685,0.0021981983445584,-0.4629044234752655,0.3401635289192212,9.79812240600586
3.1399543285369873,-0.0015423631994053,-0.0009052018285728,-0.0001614899374544,-0.4637533724308014,0.3416254818439496,9.788172721862791
3.1441166400909424,0.0013364086626097,0.0006980609614402,-0.0008912924677133,-0.4637503325939178,0.3386921286582959,9.801908493041992
3.1507134437561035,0.0003760317922569,-0.0024950546212494,-0.0014437157660722,-0.4709562659263611,0.3314890265464795,9.810415267944336
3.154336452484131,0.0003742286353372,-0.0015429286286234,-0.0002666907384991,-0.4676122963428497,0.3305179476737988,9.811388969421388
3.160034656524658,0.0009060060838237,0.0002618749276734,-0.0001428653486073,-0.4604458510875702,0.3334047496318829,9.802308082580566
3.1683568954467773,-0.0012207052204757,0.0006948452210053,-0.0005793306045234,-0.4785971939563751,0.326752305030824,9.798080444335938
3.1711864471435547,0.0001639443216845,0.0018660710193216,-0.0006758733652532,-0.4766389429569244,0.334039628505708,9.7677640914917
3.1810479164123535,-0.0002602495951578,0.0005825712578371,0.0002721170894801,-0.4465228617191314,0.3325746655464184,9.774896621704102
3.184088706970215,-0.0014431568561121,0.0011136797256767,0.0021810620091855,-0.4593860208988189,0.3302141129970563,9.766234397888184
3.1952710151672363,-0.0019575152546167,0.0019907064270228,-0.0006653661839663,-0.471381664276123,0.3448337316513074,9.827089309692385
3.1988651752471924,-0.0023921406827867,0.0003705379785969,0.0005842535756528,-0.4666639566421509,0.3405382931232464,9.817639350891112
3.212094306945801,-0.0002641398459672,0.0013137971982359,0.0038917632773518,-0.4571126103401184,0.3396032452583325,9.810592651367188
3.2167630195617676,-0.0015442565781995,4.679866833612343e-05,0.0016429061070084,-0.4718995094299316,0.3329350352287304,9.801408767700195
3.220442056655884,0.0031291781924664,-0.0007910320418886,0.0011171749792993,-0.4790928363800049,0.3344231843948376,9.807595252990724
3.22953724861145,0.002615017350763,-0.0014359349152073,4.659546539187449e-05,-0.4690466523170471,0.329155355691911,9.788113594055176
3.2295989990234375,-0.0005841836100444,-0.0005853393813595,0.0005774889141321,-0.4608764052391052,0.3377795219421399,9.78911304473877
3.2328155040740967,0.0012264420511201,0.0010012512793764,0.0033552981913089,-0.4590053260326385,0.3242644071578991,9.811823844909668
3.2393834590911865,0.0002616012352518,4.180881660431657e-05,0.0027024392038583,-0.4638063013553619,0.3181334137916577,9.802215576171877
3.2434215545654297,0.0005844836123287,-0.0017599972197785,0.0012073623947799,-0.4709410965442657,0.3353799581527722,9.790952682495115
3.2513065338134766,-0.0011149273486807,-0.0006935251876711,0.0002550357021391,-0.4608710408210754,0.3267973959445965,9.78237533569336
3.2583370208740234,-0.0001557423966005,-0.0004789635422639,0.0001495461910963,-0.4618406593799591,0.3300972580909741,9.79281997680664
3.2610225677490234,0.0013340124860405,0.0003813201328739,-0.0015470790676772,-0.4579803049564361,0.3407294154167187,9.769139289855955
3.2638700008392334,-0.000907163368538,-0.0004851241246797,0.0011078012175858,-0.4574897885322571,0.3522530794143689,9.759227752685549
3.2736411094665527,-5.1224720664322376e-05,-5.121552385389808e-05,-0.0002709217369556,-0.4632431864738464,0.3058035373687756,9.770418167114258
3.2761037349700928,0.0011182181769981,-0.0025006714276969,-6.724940612912147e-05,-0.4603985548019409,0.3143360614776623,9.787553787231444
3.281198501586914,-0.0002662756014615,-0.0015472986269742,0.000357496086508,-0.4613436758518219,0.3325095176696789,9.784337043762209
3.2841880321502686,-0.0019691106863319,-0.0015349730383604,-0.0010246401652693,-0.4656105935573578,0.3359791934490216,9.758237838745115
3.28841233253479,-0.0002643807092681,-0.0012224279344081,-0.0008079810068011,-0.4685018956661224,0.3340635299682629,9.762451171875
3.2958807945251465,-0.0009029161883518,0.0018719155341386,-0.0007996512576937,-0.4503475725650787,0.3153148889541638,9.78562831878662
3.29949688911438,0.0003723092959262,0.001746061258018,0.0020811669528484,-0.4570521414279938,0.3243790566921246,9.788077354431152
3.3050520420074463,-0.0012328448938205,-0.0011279684258624,0.0003543687053024,-0.4755920767784118,0.329999089241029,9.805652618408203
3.3079097270965576,0.0021819742396473,-0.0010087866103276,-5.77755272388457e-05,-0.4901487827301025,0.3336990475654614,9.8422212600708
3.311899185180664,0.0005869607557542,0.0009078779257833,-0.0004783873446285,-0.4801264703273773,0.3235821127891553,9.85787868499756
3.316138982772827,-0.0002626187633723,0.0032487756107002,-0.001107485499233,-0.4719851315021515,0.3221838772296918,9.851238250732422
3.3212380409240723,0.0019616435747593,0.0012213550508022,0.0016540810465812,-0.4733449816703796,0.317076236009599,9.816116333007812
3.3245503902435303,0.0010138270445168,0.0006847556214779,0.0015702033415436,-0.4780841171741485,0.3167873322963727,9.777663230895996
3.3291001319885254,-0.0016468721441924,0.0012295772321522,-0.0015435852110385,-0.4694776833057403,0.3143810629844678,9.774280548095703
3.3324594497680664,-0.0009073531255125,6.231432780623422e-05,-0.0011180615983903,-0.4493841826915741,0.3153226375579846,9.784225463867188
3.3368682861328125,-0.0006931219249963,-0.0016518852207809,0.0002556848339736,-0.462810218334198,0.3151926398277295,9.80323600769043
3.3410277366638184,0.0004768088110722,-0.000473357620649,-0.0012161005288362,-0.4686105251312256,0.3447090387344372,9.824311256408691
3.3442275524139404,0.001122779212892,0.0026279336307197,-0.0039761275984346,-0.4570774137973785,0.3606156110763562,9.80918788909912
3.348060131072998,-0.0003739744424819,0.0009089388186112,-0.0024983240291476,-0.4603695869445801,0.3593809306621564,9.77108669281006
3.3550751209259033,-0.0028284559957683,-0.0010139974765479,0.000576454680413,-0.4846665263175964,0.3298153877258313,9.755950927734377
3.357043504714966,-0.0021877465769648,-0.0016533988527953,0.0006807660683989,-0.4856525361537933,0.3168667256832135,9.75008773803711
3.3600690364837646,0.0007975377957336,0.001329556456767,0.0004863189533352,-0.47089284658432,0.3143951892852795,9.769539833068848
3.3641388416290283,0.0007989254081621,-0.0001583847333677,-0.0002640220336616,-0.4852465689182281,0.3258782625198376,9.765785217285156
3.370577573776245,-0.0006915855919942,0.0016608694568276,-0.0029157125391066,-0.4790208339691162,0.3363952040672314,9.769644737243652
3.3719866275787354,-0.0003814001102,0.0014362459769472,-0.0007915790192782,-0.4604343771934509,0.31289240717888,9.791908264160156
3.3767383098602295,-0.0014421147061511,0.0010059863561764,0.0010110381990671,-0.4551368653774261,0.3071824908256543,9.781937599182127
3.3816442489624023,-0.0006860746070742,0.0002702331985346,-0.001656315755099,-0.4441032111644745,0.3181580305099499,9.783912658691406
3.385026693344116,-0.0008046946022659,-0.0004814907442778,0.0011197440326213,-0.4584538042545318,0.3219411075115216,9.78437614440918
3.387749433517456,0.0005723476060666,0.0001483931555412,0.0004929592832922,-0.476581871509552,0.3458365797996533,9.78671169281006
3.3919715881347656,-0.0013208226300776,0.0010106432018801,-0.0012132399715483,-0.4685786068439483,0.3517115712165845,9.785530090332031
3.395345449447632,-0.0016493410803377,0.0028373652603477,-0.0038701524026691,-0.4536563754081726,0.3431229591369641,9.761698722839355
3.403986930847168,0.0004862396745011,0.000472305691801,0.0004923180676996,-0.4699519872665405,0.3262025117874157,9.779603958129885
3.4104979038238525,-0.0015389926265925,0.0004953012103214,-0.0011244290508329,-0.4713170826435089,0.3344733119010937,9.76927661895752
3.412923574447632,0.0001581577816978,-0.0013277733232825,-0.0007979930378496,-0.4680406153202057,0.3277189731597912,9.783512115478516
3.417093515396118,-0.0013329664943739,5.561008583754298e-05,-0.0002632169052958,-0.4613649547100067,0.3276445865631116,9.798253059387209
3.4205210208892822,-0.0020794887095689,0.0005819595535285,0.0003760224208235,-0.4690394699573517,0.3190039098262799,9.810101509094238
3.4253313541412354,-0.0008031441830098,0.0011179496068507,-4.199333488941206e-05,-0.4761758744716644,0.3143367767333996,9.780145645141602
3.428734302520752,0.000261626264546,-4.80028684251012e-05,-0.0013226335868239,-0.4589245617389679,0.3282622694969189,9.771204948425291
3.4320080280303955,0.0012079590233042,0.0005844944389536,-0.0013180067762732,-0.4450929164886474,0.3354893922805798,9.765545845031738
3.44006085395813,-0.0008003643015399,0.0019693779759109,0.0007074940949678,-0.4580017924308777,0.3263333439826977,9.772701263427734
3.4433536529541016,-0.0004885437665507,3.83533188141883e-05,0.0004807421937584,-0.4685514271259308,0.3344031572341931,9.788413047790527
3.4488139152526855,-0.0006878951098769,0.0011239597806707,0.0001665111631155,-0.4704621136188507,0.3400912880897534,9.79506015777588
3.454759359359741,0.0010021917987614,0.0014303786447271,0.000181458890438,-0.4642015695571899,0.3348079323768628,9.794570922851562
3.457864284515381,-0.0005900504766032,5.317589966580268e-05,-0.0002601449377834,-0.4628210961818695,0.3328816294670117,9.803118705749512
3.464700222015381,-0.0006964672356843,0.0001475389581173,0.0008273981511592,-0.4766408205032348,0.3153359889984143,9.784430503845217
3.472768545150757,-0.0004842459456995,0.0013354532420635,-0.0010011685080826,-0.4771392047405243,0.3052400350570691,9.778329849243164
3.4767284393310547,-0.0010171720059588,0.0001552661997266,0.0007007932290434,-0.4661365449428558,0.3238511979579938,9.788406372070312
3.481449604034424,-0.0015478034038096,0.001115352846682,0.0001718485727906,-0.4872399568557739,0.3394753336906445,9.823116302490234
3.4840240478515625,-0.0012298892252147,0.0009003591840155,0.0007044216617941,-0.483886182308197,0.3395034968853009,9.817903518676758
3.4884560108184814,-0.0005877986550331,0.0026116629596799,-0.0012034359388053,-0.4742762148380279,0.3328972458839428,9.79368495941162
3.496037006378174,-5.835294723510742e-05,0.0019814316183328,-0.0021717955823987,-0.4690338671207428,0.3372386097908032,9.806086540222168
3.4998629093170166,-0.0006961604813113,0.0003724878188222,-0.000256928615272,-0.4637170135974884,0.3315828740596783,9.768532752990724
3.504805326461792,-0.0005906352307647,-5.846720887348044e-05,0.0010225428268313,-0.4517879784107208,0.3233738243579876,9.788490295410156
3.5080201625823975,-5.649076774716377e-05,-0.0015384601429104,-0.0010029557161033,-0.4613497853279114,0.3324353098869336,9.79040241241455
3.5119996070861816,-0.0019745817407965,-0.0017607973422855,0.0012216493487358,-0.467128187417984,0.3452753126621258,9.808964729309082
3.5177299976348877,-0.000388465123251,0.0004729354113806,0.0014553209766745,-0.4676180183887481,0.3533957600593579,9.812365531921388
3.5213708877563477,0.0017582694999873,-0.0004826358053833,-0.0007812096737325,-0.4618978202342987,0.32246232032776,9.799142837524414
3.5249340534210205,0.0007927214028313,0.0011161569273099,7.440755143761621e-05,-0.4527277946472168,0.2942343652248395,9.77888011932373
3.528578042984009,-0.0003786353627219,0.0031411598902195,-0.000236636493355,-0.4527538418769836,0.3028078377246869,9.78654670715332
3.5321054458618164,0.001006675302051,0.0021851398050785,-0.0008768150582909,-0.4407536387443542,0.3205340504646313,9.774737358093262
3.5390470027923584,-0.0005878625670447,0.0011209119111299,-0.0018405448645353,-0.4550970196723938,0.3406708836555493,9.771992683410645
3.5404560565948486,-0.0005904728313907,0.0019683958962559,-3.22479754686358e-05,-0.4551244378089905,0.338236451148988,9.777199745178224
3.546182870864868,-0.0004823451163247,-0.0003716244827955,-0.0007889489643275,-0.4484292566776275,0.3372702598571789,9.780067443847656
3.5507829189300537,-0.0008111717179417,0.001962314127013,0.0011452594771981,-0.4599008858203888,0.3411401510238659,9.781063079833984
3.553941249847412,-0.0006994591094553,-0.0013359742006286,0.000702335499227,-0.4618235826492309,0.3248108029365552,9.783801078796388
3.5599498748779297,0.0005766809335909,0.0013265031157061,0.0002873199991881,-0.4694699943065643,0.3038014173507702,9.773231506347656
3.5693092346191406,0.0007925325771793,0.0003750096075236,-0.0006674816831946,-0.4594878256320953,0.3232366740703595,9.816597938537598
3.5720057487487793,-0.0009113602573052,0.0015428275801241,-0.0001334780827164,-0.465699553489685,0.3146476745605481,9.810834884643556
3.5763015747070312,0.0006881984882056,-0.0002669995301403,-0.0004640999250113,-0.4763034582138061,0.3079134523868573,9.80738639831543
3.5853285789489746,-0.0003749083261936,-5.4640753660351045e-05,-3.321608528494834e-05,-0.4809838235378265,0.3199236392974866,9.799921035766602
3.5853524208068848,0.000681824341882,5.3037772886455066e-05,7.775379344820976e-05,-0.4781189560890198,0.3419741690158856,9.79671573638916
3.592341184616089,4.893867298960686e-05,0.0002709699911065,-0.0013058492913842,-0.4641969799995422,0.330153286457063,9.765334129333496
3.60150146484375,4.810444079339504e-05,-5.052919732406745e-05,-0.0007802718318998,-0.4747593104839325,0.3200264573097241,9.782430648803713
3.603966236114502,-4.300172440707684e-05,0.003332762978971,-0.0004398077726364,-0.4579321444034576,0.3266787528991711,9.78807258605957
3.6079750061035156,-0.0045327367261052,0.0017516533844172,0.0012491564266383,-0.4728121161460876,0.3439889550209057,9.772043228149414
3.616533041000366,0.0002613674732856,0.0004836560983676,-0.0013043554499745,-0.4665921330451965,0.3310703635215771,9.773435592651367
3.6203322410583496,0.0032388973049819,-0.0015493721002712,0.0010336255654692,-0.4766751825809479,0.3089651465415967,9.795166969299316
3.6250760555267334,0.0030206798110157,0.0004720433207694,0.0024306466802954,-0.4819389581680298,0.3237922489643109,9.80046272277832
3.6284990310668945,0.000569176801946,-0.0002764449454843,0.0010318118147552,-0.4627673625946045,0.3275426626205456,9.817163467407228
3.634481430053711,-0.0018659341149032,0.0019713151268661,-0.0007675886154174,-0.4608465433120727,0.3244138360023511,9.766284942626951
3.639444351196289,0.0003567265812307,0.0005732616409659,0.0034852102398872,-0.4876380860805511,0.3076133131980908,9.784224510192873
3.6431808471679688,-0.0013379666488617,-5.975493695586898e-05,0.0017850748263299,-0.4848181009292602,0.3146931529045117,9.798516273498535
3.65246844291687,-0.0006977388402447,0.0006898425635881,0.0001882505603134,-0.4675863087177276,0.3214085102081311,9.79287338256836
3.6576039791107178,-0.0007102382369339,0.0013315244577825,-0.0004385118372738,-0.4704219698905945,0.3222285509109509,9.806612968444824
3.6605844497680664,0.002278743777424,-0.0003691130550578,-0.0020390707068145,-0.4776341915130615,0.3329477906227124,9.796645164489746
3.6640682220458984,0.0007934361929073,-0.0006782250711694,-0.0032187136821448,-0.4728503227233886,0.3223425149917615,9.798090934753418
3.6721439361572266,-0.0008052429184317,0.0006895320257171,0.0002965251915156,-0.4608339071273803,0.3177155852317822,9.763427734375
3.675312042236328,-0.0004855676088482,0.0014345805393531,0.0007255291566252,-0.4685025513172149,0.305214434862138,9.781389236450195
3.68595814704895,0.0011158888228237,0.0004844743816647,-0.0007602190598845,-0.4617793262004852,0.3122821450233471,9.809430122375488
3.6883585453033447,-0.0008182697929441,-0.0002606970374472,7.000518962740901e-05,-0.4593575000762939,0.3314786553382886,9.788640022277832
3.6959991455078125,0.001115791965276,-0.0011118410620838,-0.0014078211970627,-0.4560185372829437,0.3019175529479992,9.773741722106934
3.699117422103882,0.0017465146956965,0.0006931785610504,-0.0005492507480084,-0.4685419797897339,0.31520774960518,9.786216735839844
3.7049548625946045,0.0022874113637953,-0.0009093854459933,0.0009383200667798,-0.4632706344127655,0.3381409049034131,9.784435272216797
3.7079646587371826,-0.0014444343978539,0.0005831847665831,0.0003004916943609,-0.4728768765926361,0.3442815840244305,9.81387996673584
3.711912155151367,-0.0009090389357879,0.0026102650444954,-0.000224245712161,-0.4781400859355926,0.3251441717147839,9.812875747680664
3.7156717777252197,-0.0013434529537335,0.000795102037955,0.001046473160386,-0.4781250059604645,0.3309412002563489,9.793378829956056
3.7211568355560303,0.0001595674548298,0.0002633089898154,-0.0004487079568207,-0.4733336269855499,0.3266695737838757,9.789587020874023
3.728306293487549,0.0004724038299173,-4.843989154323955e-05,-0.0016163075342774,-0.5020137429237366,0.3190997838974011,9.774792671203612
3.7361886501312256,0.0001539376098662,0.0011260875035077,-0.0016076155006885,-0.479036420583725,0.3343906700611126,9.778194427490234
3.7396440505981445,0.0014300444163382,-0.000365673971828,-0.0016104304231703,-0.4689921140670776,0.3248161375522626,9.78194808959961
3.7502756118774414,-0.0034661716781556,0.0013283779844641,0.0005187224596738,-0.4723853766918182,0.3271033465862286,9.803322792053224
3.756070852279663,-0.0025088605470955,0.001545661361888,-0.0001171184703707,-0.4551374316215515,0.3271715939044964,9.785834312438965
3.760026454925537,-0.0022943245712667,-0.0001618742244318,0.0001870952546596,-0.4527826905250549,0.3424639701843274,9.792040824890137
3.7632598876953125,-0.0011321110650897,0.0011139189591631,-1.1557713150979452e-06,-0.4556235074996948,0.3305145502090466,9.79630184173584
3.772111654281616,4.773144610226154e-05,-0.0008099126862362,-0.0010889312252402,-0.4685567915439605,0.3212733864784253,9.81766128540039
3.776874303817749,0.0020563318394124,-0.0009994166903197,-1.1411495506763336e-05,-0.4723398089408874,0.3270764946937573,9.798781394958496
3.7807743549346924,0.0012187710963189,0.0018661185167729,-0.0011738701723515,-0.4872104227542877,0.3409656882286084,9.80720329284668
3.784505844116211,0.0008961670100688,-0.0001644101575948,0.0008410825394093,-0.4881704747676849,0.329964190721513,9.801000595092772
3.7914798259735107,-0.0006985204527154,-0.0010078940540552,-0.000548050738871,-0.4857618510723114,0.3214481472969067,9.782435417175291
3.795383930206299,0.0019586561247706,0.0002636666758917,0.0007361359894275,-0.4948440492153168,0.3132789433002484,9.78904151916504
3.804123878479004,-0.000699809519574,-0.001647348050028,-0.001508560962975,-0.4738232791423797,0.3256517946720135,9.800541877746582
3.8105437755584717,-0.0018666096730157,-0.0004679798730649,-0.0003266702406108,-0.4762044548988342,0.3065278828144085,9.796632766723633
3.8129589557647705,4.445482045412064e-05,-0.0002694448339752,0.0006300136446952,-0.4675747156143188,0.3114110529422772,9.781965255737305
3.8169119358062744,-0.0006994209252297,-0.0005825671250931,-0.0006492906250059,-0.477150410413742,0.3228450417518628,9.792457580566406
3.8203282356262207,-0.0015544921625405,0.0008927778690122,0.0024382281117141,-0.4757046401500702,0.3290795385837567,9.787260055541992
3.826436758041382,0.0007871220586821,-0.0004881892818957,0.0019097966141998,-0.4842984080314636,0.3272354602813733,9.772500991821287
3.8285279273986816,0.0005981348222121,-0.0003700177185237,0.0005317023023962,-0.4828148782253265,0.3214408755302441,9.789094924926758
3.8319008350372314,0.0014322636416181,5.199568113312137e-05,0.0009566242806613,-0.4814647734165191,0.3146956562995923,9.793822288513184
3.8395042419433594,-0.0004847482778131,0.0011200966546311,-0.00053221732378,-0.4699317514896393,0.3454465270042431,9.765012741088867
3.843207836151123,0.0005763323861174,0.0010146521963179,0.0001074923202395,-0.468513160943985,0.3544478118419659,9.78493881225586
3.853641986846924,-0.000909558031708,-0.0003679272485896,-0.0009621977806091,-0.4733563065528869,0.3012450933456433,9.808527946472168
3.8576838970184326,0.0002530975616537,-0.0022941704373806,-0.0010755825787782,-0.4590104818344116,0.3107866048812878,9.78189182281494
3.8600668907165527,0.001113191130571,-0.0008958364487625,-0.0018142196349799,-0.4618373811244964,0.3516317009925854,9.778804779052734
3.86381196975708,-0.0018649231642484,-0.0018555491697043,-0.0015025935135781,-0.4828826785087585,0.365965247154237,9.77647590637207
3.8672187328338623,-0.0010004984214901,-0.0009963666088879,-0.0025623184628784,-0.4771189093589782,0.3328080475330365,9.790101051330566
3.8731229305267334,0.0023911977186799,-0.0003670422011055,0.0003334037028253,-0.4785855710506439,0.3181045651435864,9.777618408203123
3.8767991065979004,0.0006886393530294,-0.0004776704008691,-0.0007481458596885,-0.473284363746643,0.317736327648164,9.75967788696289
3.8809540271759033,-6.497337017208338e-05,-0.0018618030007928,0.0004289560019969,-0.4684351980686188,0.3378363251686108,9.766907691955566
3.884143352508545,0.0007808496011421,-0.0025158138014376,9.589456021785769e-05,-0.4593842327594757,0.3478676378726971,9.754020690917969
3.889261484146118,0.0006913150427863,5.206430796533823e-05,4.82052564620971e-06,-0.4546949863433838,0.3319985866546643,9.790623664855955
3.8939223289489746,-0.0004859209293499,0.0007977245841175,0.0002191825769841,-0.4441405236721039,0.3142369985580456,9.79056453704834
3.8961281776428223,0.000257791893091,4.214246291667253e-05,0.0024537872523069,-0.45848548412323,0.3061172664165509,9.784791946411133
3.900095224380493,0.0012067322386428,0.0008953495998866,0.0021317526698112,-0.459459900856018,0.3256931304931653,9.776223182678224
3.9039809703826904,-0.0004875215236097,0.0010012947022914,0.0028916713781654,-0.4550800621509552,0.3354425728321087,9.76123332977295
3.9073801040649414,0.0010003593051806,-0.0010117072379216,0.0003228345885872,-0.4656400084495544,0.305281460285188,9.76764678955078
3.915271759033203,0.0002588013885542,-5.390145815908908e-05,0.0001106630079448,-0.4795508086681366,0.3180655837059033,9.789562225341797
3.920811653137207,-0.0002725849626585,-0.0001687844633124,0.0010635307990014,-0.493412435054779,0.340440094470979,9.800976753234863
3.925377130508423,4.942959640175104e-05,0.0001650764024816,-0.0011669122613966,-0.4728521704673767,0.3482006788253796,9.790173530578612
3.9288196563720703,0.0002622394822537,0.0017612666124477,-0.0009462302550673,-0.4718918800354004,0.3242764472961438,9.789087295532228
3.9320738315582275,0.0016422235639765,0.00015298218932,0.0013908296823501,-0.4704751968383789,0.2897515296936047,9.807945251464844
3.936109781265259,0.0009011209476739,-0.0010109834838658,0.0010643415153026,-0.4652315974235534,0.329968571662904,9.771112442016602
3.944261074066162,-0.0012353425845503,-0.0018665096722543,0.0013742498122155,-0.4728007316589355,0.3468797206878674,9.75968074798584
3.950728178024292,-0.0021896639373153,-0.0003663438255898,-0.0009602210484445,-0.4657165706157684,0.327227443456651,9.781448364257812
3.954803228378296,-0.0010143810650333,-0.0014687746297568,-0.0004501147195696,-0.4685553610324859,0.2972327172756207,9.793801307678224
3.9569203853607178,0.0014379308559,-0.0012218246702104,0.0001086662523448,-0.4866868555545807,0.3114565014839184,9.783592224121094
3.9606032371520996,-0.0003761383704841,-0.0002589671639725,-0.0012793568894267,-0.4761528670787811,0.3565226793289197,9.752519607543944
3.966758966445923,0.0001676861429587,-0.0010231878841295,0.0003026258200407,-0.4771744906902313,0.3383272886276257,9.78273105621338
3.970438241958618,0.000784381176345,0.0012264646356925,-0.0011493889614939,-0.4738260507583618,0.2989140152931225,9.800653457641602
3.9775054454803467,-0.000377494492568,4.976789932698024e-05,0.0010621165856719,-0.4590020179748535,0.33332657814026,9.801298141479492
3.985057830810547,-0.0014366923132911,0.0001690561766736,-0.0019213235937058,-0.4699926972389221,0.350071042776109,9.80132007598877
3.992802858352661,0.0011176151456311,-0.0020648231729865,-0.0019295499660074,-0.4495359659194946,0.2949406206607831,9.81818675994873
3.996245861053467,0.0013339284341782,-0.0011120724957436,-0.0008507673628628,-0.4512624442577362,0.3169547915458691,9.797898292541504
4.001697778701782,0.0015416960231959,0.0002682582125999,-0.0004419069737195,-0.4723793864250183,0.3505392670631421,9.788370132446287
4.005395174026489,0.0016427882947027,0.001534627052024,0.0022394089028239,-0.4699845016002655,0.3443636894226086,9.79030418395996
4.008757591247559,-0.0020817820914089,0.0014353288570418,0.0008508074097335,-0.4824229776859283,0.3218896090984356,9.785383224487305
4.012110233306885,-0.0011167005868628,0.0005904785939492,-0.0009608422406017,-0.4762160181999206,0.3165840804576886,9.802016258239746
4.017496109008789,-0.0015426584286615,-0.0006820863345637,-0.0005399705842137,-0.4757362008094787,0.3165512681007397,9.808183670043944
4.020347833633423,-0.0008030909812077,-0.0019730899948626,0.0004120850935578,-0.4699455499649048,0.3229568004608166,9.763545989990234
4.02618932723999,-0.0011022791732102,-0.0017249099910259,-0.0014959699474275,-0.4761414229869842,0.3319439291954053,9.773462295532228
4.029551029205322,0.0005820089718326,-0.0012094588018953,-0.0019331853836774,-0.4771454334259033,0.3220614194870007,9.758766174316406
4.032651424407959,0.0014320574700832,-0.000695054535754,0.001486032269895,-0.4613916575908661,0.315593481063844,9.806699752807615
4.0361387729644775,0.0003720031818374,-0.0016340181464329,-0.0017114537768065,-0.4609141051769256,0.3179654181003583,9.80910873413086
4.040936231613159,0.0001593814231455,-0.0022855419665575,-0.0011814231984317,-0.4618328213691711,0.3305452764034283,9.775405883789062
4.044028043746948,0.00079925742466,-0.0003615248715505,-0.001604470424354,-0.4838133454322815,0.3387525081634533,9.76541519165039
4.05173134803772,0.0017456053756177,-0.0026064689736813,0.0011522863060235,-0.4828717112541199,0.3220351040363324,9.764842987060549
4.057845830917358,0.000582412991207,-0.0009011555812321,-1.1236406862734645e-06,-0.4623467326164245,0.321220785379411,9.794093132019045
4.060944557189941,-0.0012285003904253,0.0012188180116936,0.0007503647357225,-0.4781391620635986,0.3532208204269421,9.805140495300291
4.06744909286499,-5.3904601372778416e-05,0.0003739890526048,-0.0002114279195666,-0.4938701391220093,0.3252146542072308,9.76463222503662
4.074102878570557,0.0008977227844297,0.0012216882314532,0.0010716775432229,-0.4637790024280548,0.2959999144077313,9.769246101379396
4.08199667930603,0.0013237630482763,-0.0005862065008841,1.90921127796891e-08,-0.4761836230754852,0.3252578377723706,9.756969451904297
4.086243629455566,-0.0006937796715646,0.0003752500051632,-0.0002113999798893,-0.4599379301071167,0.3403868079185498,9.791775703430176
4.090301036834717,-0.0006946676876395,0.0022840481251478,0.0011817789636552,-0.4590320289134979,0.3264174461364758,9.811638832092283
4.093310832977295,0.0011102057760581,0.0007903730729594,0.0020271437242627,-0.4685823917388916,0.2963221669197095,9.804834365844728
4.097053050994873,0.0010102598462253,-0.0013324202736839,0.0005262102931737,-0.4690149426460266,0.2974015176296246,9.778183937072754
4.105026721954346,-0.0003749909810721,-0.0006902365712448,-3.4375116229056465e-06,-0.466175377368927,0.3470634818077099,9.795525550842283
4.112850904464722,-0.0001618938986212,-0.0012214428279548,-0.0003250306472182,-0.4551992118358612,0.3044303059577954,9.810543060302734
4.1181252002716064,0.0007911743596196,0.0002636680146679,0.0006419564597308,-0.4580762684345245,0.297230660915376,9.81239128112793
4.122103929519653,0.0029202583245933,-0.0012318245135247,0.0023358957841992,-0.450880765914917,0.3111343383789074,9.803441047668455
4.12790322303772,0.0017498477827757,0.0001514683244749,0.0022371569648385,-0.4575482904911041,0.3227285742759717,9.783997535705566
4.129459619522095,0.0006876313127577,0.0010012550046667,0.0025607356801629,-0.4685272872447967,0.3371277749538434,9.773100852966309
4.132959604263306,-0.0004890987183898,0.0006897435523569,0.0023408252745866,-0.4613977670669555,0.3113079667091382,9.781092643737791
4.137511730194092,0.0020607151091098,0.0001608342281542,0.0017152670770883,-0.4575175642967224,0.3069722056388867,9.769694328308104
4.141169786453247,0.000904981396161,-0.0007960026268847,-0.0002153529785573,-0.4613318145275116,0.3261542022228253,9.76259994506836
4.145501375198364,0.002082894090563,-0.0016578088980168,0.0022287610918283,-0.4695668816566467,0.3260892033576977,9.776934623718262
4.155357599258423,0.0004486130201257,-0.0003646398545242,0.0006307628937065,-0.4723468124866485,0.3323284387588513,9.790728569030762
4.156054258346558,-0.0006917702266946,0.0014435785124078,-0.0014818585477769,-0.471927672624588,0.3203486800193799,9.784854888916016
4.158931732177734,0.0015439369017258,0.0005873898044228,-0.0007377411238849,-0.4613892436027527,0.3227016627788556,9.792007446289062
4.16071343421936,0.0001553636975586,-0.0016532759182155,0.0013729366473853,-0.4637921452522278,0.3169347047805798,9.797652244567873
4.164663076400757,0.0006907419883646,-0.0003648757119663,-0.0010624965652823,-0.4628142416477203,0.3270597755908978,9.78061294555664
4.169656753540039,-0.0005813193274661,-0.001109160715714,-0.001717809587717,-0.4555761516094208,0.3190383911132824,9.752575874328612
4.1730797290802,-0.0017520216060802,0.0001662923605181,-6.449874490499517e-06,-0.4523416459560394,0.316134423017503,9.766990661621094
4.177389860153198,-0.0006930010858923,-0.0007981584640219,-0.0003290139138698,-0.4571203291416168,0.3216764330863965,9.80714225769043
4.180942058563232,0.0007983549730852,-0.0002611854579299,-0.001067753881216,-0.465252548456192,0.3187909424304974,9.808072090148926
4.18497633934021,0.0004766263882629,-0.0013374720001593,0.0008240044116973,-0.468580424785614,0.3221186995506299,9.802284240722656
4.1935484409332275,-7.337750867009163e-05,0.0009050472872331,0.0003240639343857,-0.4719313979148865,0.3241842091083539,9.786806106567385
4.202974796295166,0.0009028302738443,0.0001523948740214,9.413203224539755e-05,-0.4637728333473205,0.3141081333160412,9.788132667541504
4.2120020389556885,-0.0012264775577932,0.0001599524985067,0.0005255741998553,-0.4599959254264831,0.338351756334306,9.821407318115234
4.218196153640747,-0.0001591503387317,-0.0004741684533655,-7.686205208301487e-06,-0.4618756473064422,0.3308002948760998,9.800006866455078
4.220417737960815,0.0012133122654631,0.0007992353057488,-0.0005263769999146,-0.4718546271324157,0.315111428499223,9.791265487670898
4.226702451705933,0.0024973545223474,-0.0001615096116438,0.0006351326592266,-0.4767293334007263,0.3058773279190075,9.811223030090332
4.233274221420288,-0.0002682931954041,0.0001552347675897,0.0016997740603983,-0.4566058218479156,0.3456781506538403,9.792439460754396
4.236883163452148,-0.0011178278364241,-0.001108618453145,-0.001180063933134,-0.466666430234909,0.3408074378967297,9.807127952575684
4.243474960327148,-0.0010151085443794,0.0001583639532327,0.0014846744015812,-0.4829255938529968,0.3070269525051129,9.779861450195312
4.252202987670898,-0.0010118405334651,-0.0003700139350257,-0.0007385713979601,-0.4576762020587921,0.2901323437690747,9.80156707763672
4.258040428161621,0.0014398080529645,-5.423906259238721e-05,-0.0001135114580392,-0.47048419713974,0.3394421339035046,9.793789863586426
4.2639851570129395,0.0002612533280625,-5.5210897698998383e-05,0.0005277805030345,-0.4757445752620697,0.3293535113334668,9.803723335266112
4.268001556396484,5.287211388349533e-05,-0.0011180798755958,0.0005207983776926,-0.4819576144218445,0.3313078880310071,9.792318344116213
4.274313449859619,0.0023867576383054,-6.220879731699803e-05,0.0018054759129881,-0.470915138721466,0.3376296758651745,9.76814079284668
4.282774925231934,-0.0023004282265901,-0.0023006966803222,0.0003964724019169,-0.4570730626583099,0.329929292201997,9.764349937438965
4.285104036331177,-0.0011220397427678,-0.001025203615427,0.0007478208281099,-0.4685475826263428,0.3093178272247326,9.78605842590332
4.2898523807525635,0.0007918399642221,0.0002627282519824,0.0011643744073808,-0.4694945514202118,0.3179754018783581,9.780855178833008
4.296902894973755,5.26087824255228e-05,-0.0003669723519124,-0.0010727155022323,-0.4848233461380005,0.3480681478977215,9.789987564086914
4.305642127990723,-0.0004802172770723,-0.0026036819908767,-0.0003392347134649,-0.4470274150371551,0.3021425008773816,9.792181968688965
4.3128273487091064,0.0029279910959303,-0.0002691086847335,0.0014835749752819,-0.4709241390228271,0.3399908244609845,9.77478313446045
4.3170106410980225,0.0006828565965406,0.0015408219769597,-9.354297071695348e-05,-0.4756692051887512,0.3367154598236096,9.76901149749756
4.32195782661438,-0.000161872128956,0.0005824982072226,0.0006326846778392,-0.4714166820049286,0.3227559030056012,9.779888153076172
4.324484825134277,-0.0010151638416573,-0.0004808253142982,0.0007334011606872,-0.4747771620750427,0.3255689740180981,9.792243957519531
4.329333066940308,0.0001649924088269,0.0003779353573918,-0.0033997597638517,-0.4700925648212433,0.3317347764968884,9.805126190185549
4.332007646560669,0.0005704223294742,0.0018648997647687,-0.0023721805773675,-0.4755976796150207,0.3384679555892956,9.79184913635254
4.336953163146973,0.0021772789768874,0.002825467614457,-0.0002044639550149,-0.4872191846370697,0.3323201835155499,9.783706665039062
4.340493440628052,0.0030267708934843,0.0038800868205726,0.0009722290560603,-0.471907764673233,0.3069707751274121,9.777936935424805
4.345543622970581,0.0006905359332449,0.0013295664684846,0.0005327891558408,-0.4622977674007416,0.3299911022186291,9.767096519470217
4.350783586502075,-0.0004767227219417,-0.0023013483732938,0.0006192922592163,-0.4628233909606933,0.3433547616004956,9.779858589172363
4.355526685714722,-0.0014438291545957,-0.0006968580419197,0.0017943941056728,-0.4671388566493988,0.3365125358104718,9.80891227722168
4.360945701599121,-0.0003764189314097,0.0013286315370351,0.0005276310257613,-0.4633302390575409,0.3326653540134442,9.811758995056152
4.367918014526367,-0.0010135322809219,0.0002731650602072,-0.0015001082792878,-0.484370470046997,0.3174256086349499,9.800267219543455
4.370080232620239,-0.0004805440548807,0.0014353917213156,0.0007367697544395,-0.4747752845287323,0.3231734335422528,9.79226016998291
4.373103857040405,-0.0003759989049285,0.0001537002972327,0.0007352828979492,-0.4732916057109833,0.3276903629302991,9.750889778137209
4.37759804725647,-0.0008052992634475,-0.0018632432911545,0.0001934454776346,-0.4766527116298675,0.3276028633117688,9.765630722045898
4.3850257396698,0.0016500410856679,-0.0019603234250098,-0.0011813114397227,-0.4532673060894012,0.3385026454925549,9.79182243347168
4.3927693367004395,-0.0033463318832218,-0.0005905289435759,0.0011469405144453,-0.4666443765163421,0.3351123929023755,9.806010246276855
4.396006107330322,-0.0015532436082139,-0.0013399760937318,0.0014751884154975,-0.4633301496505737,0.3226379454135907,9.807908058166504
4.4019694328308105,0.0007887441315688,0.0010171439498662,-4.016328603029376e-06,-0.4656510949134826,0.316928029060365,9.800759315490724
4.40498685836792,-4.9650087021291256e-05,-0.0003741750260815,-0.0002239779569208,-0.4833694100379944,0.3116519451141369,9.803077697753906
4.4083216190338135,-0.0010139265796169,0.0017620645230636,-0.0007467065006494,-0.4685691595077514,0.3346393108367932,9.790831565856934
4.41206169128418,0.000686967454385,-0.001967622898519,8.630566298961664e-05,-0.4565939009189605,0.3375608623027814,9.791324615478516
4.417342662811279,0.0001427166862413,0.0003691936144605,-0.0006395960226655,-0.4656835198402405,0.3235818147659314,9.8106689453125
4.420325994491577,0.0009018228156492,-5.798490019515152e-05,0.0004143686965107,-0.4652371108531952,0.3212516009807599,9.798870086669922
4.433500528335571,4.599918611347675e-05,0.0014302785275503,0.0018049106001853,-0.4680441319942474,0.3280350267887127,9.777015686035156
4.4335548877716064,0.0003669930738396,0.0005815747426822,0.0012678662315011,-0.467133492231369,0.349446088075639,9.801334381103516
4.43411111831665,0.001005009165965,0.0004736332921311,0.0014868983998894,-0.4805423617362976,0.3504216969013226,9.798906326293944
4.436402320861816,0.0002612901153042,0.0016439160099253,0.000100721605122,-0.4810079634189605,0.3274583220481885,9.800254821777344
4.440882682800293,0.0020673805847764,0.0024006315506994,0.0002148174680769,-0.468134731054306,0.3164150118827832,9.810713768005373
4.4440598487854,0.0002610993105918,-0.0004817628650926,0.0007332558743655,-0.4584636092185974,0.3241414427757275,9.787468910217283
4.452388763427734,-0.0009098947048187,-0.0003741345135495,0.0009451759979128,-0.4656636416912079,0.3437785208225262,9.782777786254885
4.457596778869629,-0.0009112447733059,-0.0008006155258044,0.0003026565536856,-0.4786073565483093,0.338009297847749,9.79412078857422
4.464972734451294,0.0003712260513566,-0.0005781360669061,-0.001608345657587,-0.4757772982120514,0.326877534389497,9.823058128356934
4.469285011291504,0.00079264404485,0.0001619484391994,-0.0003297068178653,-0.4833948910236358,0.3375247120857251,9.797484397888184
4.473285913467407,0.0005846563726663,0.0001554447226226,0.0010429518297314,-0.4628818929195404,0.3288266360759747,9.80257797241211
4.476760149002075,-0.0006962603656575,-0.0002674027928151,9.031360968947412e-05,-0.4642635881900787,0.3226639032363904,9.799306869506836
4.481679439544678,-0.0004820531466975,-0.0005785370012745,-0.0013981638476252,-0.4762356579303741,0.3125576972961438,9.815879821777344
4.484116792678833,-0.0012300187954679,0.0007959949434734,0.0007348954677581,-0.4819501936435699,0.3380066156387341,9.793179512023926
4.489200115203857,0.0013237588573247,-0.0002679875469766,0.0005224049091339,-0.4776231646537781,0.3485945761203778,9.778973579406738
4.494578123092651,0.002173407934606,-0.0011216502171009,0.0010546133853495,-0.4608883261680603,0.3409728407859814,9.775639533996582
4.496967554092407,0.0002660214668139,-0.0016416106373071,-0.001507312990725,-0.453203409910202,0.3328832983970654,9.766599655151367
4.500066041946411,0.0005711520207114,-0.002277095336467,0.0001912410371005,-0.4598844945430755,0.31787008047104,9.805313110351562
4.505935907363892,-5.3076655603945255e-05,-0.0022932968568056,-1.843180507421465e-05,-0.4662672281265259,0.3229454755783093,9.843460083007812
4.50889253616333,-0.0020761433988809,-0.0028085042722523,-0.0009829993359744,-0.4600249826908111,0.3411925733089459,9.824599266052246
4.512890815734863,-0.0015462035080417,-0.0004727391642518,-0.0008689519017934,-0.4714163839817047,0.3375790417194378,9.782230377197266
4.516379117965698,-0.0015520971501246,0.0010102598462253,-9.631738066673402e-06,-0.4723743796348572,0.3212970495224011,9.79024887084961
4.5219995975494385,0.0013237219536677,4.73819673061373e-05,0.0017945664003491,-0.4599592089653015,0.3155421018600476,9.791214942932127
4.52445912361145,0.0011130606289952,-0.001649675425142,8.818088099360486e-05,-0.461349755525589,0.3184720277786267,9.775534629821776
4.529419422149658,-0.0012365628499537,4.917127080261716e-05,0.0007301000878214,-0.4727956652641296,0.3546794652938855,9.788532257080078
4.532153844833374,0.0011113011278212,0.0002662771730683,-0.0002253991551697,-0.4666063487529754,0.3433545231819165,9.780386924743652
4.536933422088623,-0.0003766680601984,5.421182140707974e-05,0.0003146897070109,-0.476677268743515,0.3251082897186291,9.798218727111816
4.540642261505127,0.0006842449074611,0.0006893593817949,-0.0001172679476439,-0.474772185087204,0.3213289380073559,9.784100532531738
4.545061826705933,0.0031335540115833,-0.000473185442388,0.0003083357587456,-0.4656661748886108,0.3150748610496533,9.786434173583984
4.556017637252808,0.0001529674045741,0.0022894458379596,-0.000536547973752,-0.4661526381969452,0.3562008738517773,9.790912628173828
4.559065580368042,0.0004676232929341,0.002391266869381,0.0014826469123363,-0.4622660279273987,0.3275579214096081,9.78848648071289
