timestamp,angular_velocity.x,angular_velocity.y,angular_velocity.z,linear_acceleration.x,linear_acceleration.y,linear_acceleration.z
0.0,9.72897032625042e-06,-2.658932498889044e-05,0.0017291877884417,0.1106352061033248,-9.709287643432615,-0.1982956826686859
0.005002498626708984,-0.003480929415673,0.0034640692174434,-1.6141464584507048e-05,0.0704930648207664,-9.729947090148926,-0.1995485424995422
0.010004997253417969,-0.0052262586541473,-2.658932498889044e-05,0.0017291877884417,0.1100581139326095,-9.730728149414062,-0.2386865317821502
0.015007257461547852,-0.0017356002936139,0.0017187398625537,-1.6141464584507048e-05,0.070765696465969,-9.689969062805176,-0.1987492144107818
0.020009517669677734,9.72897032625042e-06,-2.658932498889044e-05,0.0017291877884417,0.0900552123785018,-9.73106288909912,-0.2391131222248077
0.025012969970703125,9.72897032625042e-06,-2.658932498889044e-05,-1.6141464584507048e-05,0.070986084640026,-9.689242362976074,-0.1787536144256591
0.030015230178833008,-0.0017356002936139,-2.658932498889044e-05,0.0017291877884417,0.1103307455778122,-9.690750122070312,-0.2378871887922287
0.03501749038696289,9.72897032625042e-06,0.0017187398625537,0.0017291877884417,0.0907686203718185,-9.6896333694458,-0.1983226239681244
0.04001879692077637,9.72897032625042e-06,-2.658932498889044e-05,-1.6141464584507048e-05,0.0704930648207664,-9.729947090148926,-0.1995485424995422
0.04502224922180176,9.72897032625042e-06,-2.658932498889044e-05,-1.6141464584507048e-05,0.0905482321977615,-9.690359115600586,-0.2183181941509246
0.05002450942993164,-0.0017356002936139,-2.658932498889044e-05,-1.6141464584507048e-05,0.1104148179292678,-9.710013389587402,-0.2182912677526474
0.05502676963806152,9.72897032625042e-06,0.0017187398625537,-1.6141464584507048e-05,0.0900552123785018,-9.73106288909912,-0.2391131222248077
0.060029029846191406,9.72897032625042e-06,0.0034640692174434,-1.6141464584507048e-05,0.0708497688174247,-9.70923137664795,-0.1791532933712005
0.06503129005432129,-0.003480929415673,-2.658932498889044e-05,-1.6141464584507048e-05,0.1099740415811538,-9.711465835571287,-0.2582824230194092
0.07003355026245117,9.72897032625042e-06,-2.658932498889044e-05,-0.0035067999269813,0.0905482321977615,-9.690359115600586,-0.2183181941509246
0.07503604888916016,-0.0017356002936139,0.0017187398625537,-1.6141464584507048e-05,0.0702726766467094,-9.730672836303713,-0.2195441275835037
0.08003783226013184,9.72897032625042e-06,0.0017187398625537,0.0017291877884417,0.0904119163751602,-9.71034812927246,-0.2187178581953048
0.08504033088684082,9.72897032625042e-06,-2.658932498889044e-05,-1.6141464584507048e-05,0.0906323045492172,-9.709622383117676,-0.1987222731113433
0.0900428295135498,-0.0017356002936139,0.0017187398625537,0.0034745170269161,0.1104148179292678,-9.710013389587402,-0.2182912677526474
0.09504485130310059,9.72897032625042e-06,-2.658932498889044e-05,0.0034745170269161,0.0900552123785018,-9.73106288909912,-0.2391131222248077
0.10004782676696777,9.72897032625042e-06,0.0017187398625537,-1.6141464584507048e-05,0.0903278440237045,-9.691084861755373,-0.2383137792348861
0.10504984855651855,9.72897032625042e-06,0.0034640692174434,-1.6141464584507048e-05,0.0707134529948234,-9.729220390319824,-0.1795529723167419
0.11005234718322754,9.72897032625042e-06,-2.658932498889044e-05,-1.6141464584507048e-05,0.0506264716386795,-9.71029281616211,-0.1995754539966583
0.11505436897277832,-0.0017356002936139,0.0017187398625537,0.0017291877884417,0.0907686203718185,-9.6896333694458,-0.1983226239681244
0.1200563907623291,-0.0017356002936139,-2.658932498889044e-05,-1.6141464584507048e-05,0.0704089924693107,-9.710683822631836,-0.2191444486379623
0.12505865097045898,0.0017550581833347,0.0017187398625537,0.0017291877884417,0.1104148179292678,-9.710013389587402,-0.2182912677526474
0.13006067276000977,9.72897032625042e-06,0.0017187398625537,-1.6141464584507048e-05,0.0900552123785018,-9.73106288909912,-0.2391131222248077
0.13506293296813965,0.0017550581833347,0.0034640692174434,-1.6141464584507048e-05,0.1108555942773819,-9.708560943603516,-0.1783001124858856
0.14006495475769043,-0.0017356002936139,0.0052093984559178,-1.6141464584507048e-05,0.0704089924693107,-9.710683822631836,-0.2191444486379623
0.1450672149658203,9.72897032625042e-06,0.0017187398625537,-1.6141464584507048e-05,0.0706816241145134,-9.670705795288086,-0.2183451056480407
0.1500692367553711,-0.0017356002936139,0.0017187398625537,-0.0017614706885069,0.0907686203718185,-9.6896333694458,-0.1983226239681244
0.15507125854492188,-0.0017356002936139,-2.658932498889044e-05,-1.6141464584507048e-05,0.0505423992872238,-9.69102954864502,-0.2191713750362396
0.16007351875305176,-0.003480929415673,-2.658932498889044e-05,-1.6141464584507048e-05,0.0901915282011032,-9.711073875427246,-0.2387134432792663
0.16507554054260254,9.72897032625042e-06,0.0017187398625537,-0.0035067999269813,0.0700522884726524,-9.731398582458496,-0.2395397126674652
0.17007851600646973,-0.0017356002936139,0.0034640692174434,0.0052198460325598,0.1104148179292678,-9.710013389587402,-0.2182912677526474
0.1750795841217041,-0.003480929415673,-2.658932498889044e-05,-0.0017614706885069,0.0901915282011032,-9.711073875427246,-0.2387134432792663
0.1800827980041504,9.72897032625042e-06,0.0017187398625537,-1.6141464584507048e-05,0.0903278440237045,-9.691084861755373,-0.2383137792348861
0.18508481979370117,9.72897032625042e-06,-2.658932498889044e-05,-1.6141464584507048e-05,0.0704089924693107,-9.710683822631836,-0.2191444486379623
0.19008684158325195,9.72897032625042e-06,-2.658932498889044e-05,0.0017291877884417,0.0909049361944198,-9.669644355773926,-0.197922945022583
0.19508862495422363,9.72897032625042e-06,0.0017187398625537,-1.6141464584507048e-05,0.0898348242044448,-9.731789588928224,-0.259108692407608
0.20009088516235352,9.72897032625042e-06,0.0034640692174434,0.0034745170269161,0.0907163769006729,-9.72888469696045,-0.1791263818740844
0.2050926685333252,-0.003480929415673,-2.658932498889044e-05,0.0017291877884417,0.0903278440237045,-9.691084861755373,-0.2383137792348861
0.21009469032287598,0.0017550581833347,0.0034640692174434,-1.6141464584507048e-05,0.0898348242044448,-9.731789588928224,-0.259108692407608
0.21509671211242676,-0.0017356002936139,-2.658932498889044e-05,0.0017291877884417,0.1108555942773819,-9.708560943603516,-0.1783001124858856
0.22009873390197754,-0.0017356002936139,0.0052093984559178,0.0017291877884417,0.0698319002985954,-9.732125282287598,-0.2595352828502655
0.22510051727294922,-0.0017356002936139,0.0034640692174434,-1.6141464584507048e-05,0.1102785021066665,-9.730002403259276,-0.2186909466981887
0.2301025390625,9.72897032625042e-06,-2.658932498889044e-05,0.0017291877884417,0.1303654909133911,-9.748930931091309,-0.1986684501171112
0.23510456085205078,9.72897032625042e-06,0.0017187398625537,0.0017291877884417,0.0906323045492172,-9.709622383117676,-0.1987222731113433
0.24010753631591797,9.72897032625042e-06,-0.0017719186143949,0.0034745170269161,0.070324920117855,-9.691420555114746,-0.2387403696775436
0.24510931968688965,-0.003480929415673,0.0017187398625537,-1.6141464584507048e-05,0.070545308291912,-9.69069480895996,-0.2187447845935821
0.25011110305786133,9.72897032625042e-06,-2.658932498889044e-05,-1.6141464584507048e-05,0.0905482321977615,-9.690359115600586,-0.2183181941509246
0.2551131248474121,-0.0017356002936139,0.0034640692174434,-1.6141464584507048e-05,0.0906323045492172,-9.709622383117676,-0.1987222731113433
0.2601149082183838,9.72897032625042e-06,-2.658932498889044e-05,-1.6141464584507048e-05,0.0905482321977615,-9.690359115600586,-0.2183181941509246
0.26511693000793457,9.72897032625042e-06,0.0017187398625537,-1.6141464584507048e-05,0.0907686203718185,-9.6896333694458,-0.1983226239681244
0.27011871337890625,9.72897032625042e-06,0.0017187398625537,0.0017291877884417,0.1105511337518692,-9.690024375915527,-0.2178916037082672
0.27512049674987793,-0.0017356002936139,0.0017187398625537,-1.6141464584507048e-05,0.0903278440237045,-9.691084861755373,-0.2383137792348861
0.2801225185394287,-0.003480929415673,-2.658932498889044e-05,0.0017291877884417,0.0902756005525589,-9.730337142944336,-0.2191175371408462
0.2851243019104004,0.0017550581833347,0.0017187398625537,0.0034745170269161,0.0906323045492172,-9.709622383117676,-0.1987222731113433
0.29012632369995117,9.72897032625042e-06,0.0034640692174434,0.0017291877884417,0.0909890085458755,-9.6889066696167,-0.1783270239830017
0.29512786865234375,9.72897032625042e-06,-2.658932498889044e-05,0.0017291877884417,0.0903278440237045,-9.691084861755373,-0.2383137792348861
0.30012965202331543,-0.003480929415673,0.0017187398625537,0.0017291877884417,0.0706293806433677,-9.70995807647705,-0.1991488635540008
0.3051326274871826,9.72897032625042e-06,0.0017187398625537,0.0034745170269161,0.1099740415811538,-9.711465835571287,-0.2582824230194092
0.3101341724395752,9.72897032625042e-06,-2.658932498889044e-05,-1.6141464584507048e-05,0.0904119163751602,-9.71034812927246,-0.2187178581953048
0.3151359558105469,9.72897032625042e-06,0.0052093984559178,0.0017291877884417,0.1107715219259262,-9.689298629760742,-0.1978960335254669
0.32013797760009766,9.72897032625042e-06,0.0034640692174434,-1.6141464584507048e-05,0.1106352061033248,-9.709287643432615,-0.1982956826686859
0.32513976097106934,9.72897032625042e-06,0.0034640692174434,-1.6141464584507048e-05,0.0711224004626274,-9.6692533493042,-0.1783539354801178
0.3301413059234619,9.72897032625042e-06,0.0034640692174434,-1.6141464584507048e-05,0.1102785021066665,-9.730002403259276,-0.2186909466981887
0.3351430892944336,-0.0017356002936139,0.0034640692174434,0.0017291877884417,0.070545308291912,-9.69069480895996,-0.2187447845935821
0.3401448726654053,9.72897032625042e-06,0.0017187398625537,-1.6141464584507048e-05,0.0904959887266159,-9.72961139678955,-0.1991219520568847
0.34514641761779785,9.72897032625042e-06,0.0017187398625537,-1.6141464584507048e-05,0.0908004492521286,-9.74814796447754,-0.1595304459333419
0.35014843940734863,-0.003480929415673,-2.658932498889044e-05,-1.6141464584507048e-05,0.0905482321977615,-9.690359115600586,-0.2183181941509246
0.3551499843597412,-0.0017356002936139,0.0017187398625537,-1.6141464584507048e-05,0.0705975517630577,-9.651442527770996,-0.2379410117864608
0.3601515293121338,9.72897032625042e-06,0.0017187398625537,-1.6141464584507048e-05,0.0704612359404563,-9.671431541442873,-0.2383406907320022
0.36515331268310547,9.72897032625042e-06,0.0052093984559178,0.0017291877884417,0.0902756005525589,-9.730337142944336,-0.2191175371408462
0.37015509605407715,9.72897032625042e-06,0.0017187398625537,0.0017291877884417,0.0901392847299575,-9.750326156616213,-0.2195172160863876
0.3751566410064697,0.0017550581833347,-2.658932498889044e-05,-1.6141464584507048e-05,0.0701363682746887,-9.750661849975586,-0.2199438065290451
0.3801593780517578,9.72897032625042e-06,-2.658932498889044e-05,-1.6141464584507048e-05,0.0903278440237045,-9.691084861755373,-0.2383137792348861
0.385159969329834,9.72897032625042e-06,-2.658932498889044e-05,-1.6141464584507048e-05,0.0907686203718185,-9.6896333694458,-0.1983226239681244
0.39016270637512207,-0.0017356002936139,-2.658932498889044e-05,-1.6141464584507048e-05,0.0702726766467094,-9.730672836303713,-0.2195441275835037
0.39516425132751465,9.72897032625042e-06,0.0017187398625537,0.0034745170269161,0.0709338411688804,-9.72849464416504,-0.159557357430458
0.40016603469848633,-0.003480929415673,0.0017187398625537,-1.6141464584507048e-05,0.0900552123785018,-9.73106288909912,-0.2391131222248077
0.4051675796508789,9.72897032625042e-06,0.0052093984559178,0.0017291877884417,0.0908526927232742,-9.708895683288574,-0.1787267029285431
0.4101691246032715,0.0017550581833347,-2.658932498889044e-05,-1.6141464584507048e-05,0.1101103574037551,-9.691476821899414,-0.2578827738761902
0.41517066955566406,-0.003480929415673,0.0017187398625537,0.0017291877884417,0.1108555942773819,-9.708560943603516,-0.1783001124858856
0.42017245292663574,9.72897032625042e-06,0.0034640692174434,0.0034745170269161,0.0702726766467094,-9.730672836303713,-0.2195441275835037
0.4251737594604492,-0.003480929415673,0.0017187398625537,-1.6141464584507048e-05,0.0904959887266159,-9.72961139678955,-0.1991219520568847
0.4301755428314209,-0.0017356002936139,0.0034640692174434,-1.6141464584507048e-05,0.1096173375844955,-9.73218059539795,-0.2786777019500732
0.4351770877838135,9.72897032625042e-06,0.0017187398625537,0.0034745170269161,0.0901074558496475,-9.691811561584473,-0.2583093643188476
0.44017839431762695,-0.0017356002936139,0.0017187398625537,-1.6141464584507048e-05,0.0706293806433677,-9.70995807647705,-0.1991488635540008
0.44517993927001953,9.72897032625042e-06,-2.658932498889044e-05,-1.6141464584507048e-05,0.0899711400270462,-9.711800575256348,-0.2587090134620666
0.4501826763153076,9.72897032625042e-06,0.0034640692174434,-1.6141464584507048e-05,0.0705771446228027,-9.7492094039917,-0.1799526512622833
0.4551839828491211,9.72897032625042e-06,-2.658932498889044e-05,-1.6141464584507048e-05,0.0704930648207664,-9.729947090148926,-0.1995485424995422
0.46018552780151367,0.0017550581833347,0.0017187398625537,-0.0017614706885069,0.0899711400270462,-9.711800575256348,-0.2587090134620666
0.4652087688446045,9.72897032625042e-06,0.0017187398625537,0.0034745170269161,0.0704089924693107,-9.710683822631836,-0.2191444486379623
0.4702155590057373,-0.0017356002936139,0.0017187398625537,0.0017291877884417,0.0905482321977615,-9.690359115600586,-0.2183181941509246
0.4752223491668701,-0.0017356002936139,0.0017187398625537,-0.0017614706885069,0.0906845480203628,-9.670370101928713,-0.2179185152053833
0.48022913932800293,-0.0017356002936139,0.0052093984559178,-0.0017614706885069,0.1106352061033248,-9.709287643432615,-0.1982956826686859
0.48523616790771484,9.72897032625042e-06,-2.658932498889044e-05,0.0017291877884417,0.0905482321977615,-9.690359115600586,-0.2183181941509246
0.49024295806884766,9.72897032625042e-06,-2.658932498889044e-05,0.0034745170269161,0.1105511337518692,-9.690024375915527,-0.2178916037082672
0.49524974822998047,-0.0017356002936139,-2.658932498889044e-05,0.0017291877884417,0.0907686203718185,-9.6896333694458,-0.1983226239681244
0.5002565383911133,9.72897032625042e-06,0.0017187398625537,0.0052198460325598,0.1100581139326095,-9.730728149414062,-0.2386865317821502
0.5052633285522461,9.72897032625042e-06,-2.658932498889044e-05,-1.6141464584507048e-05,0.0899711400270462,-9.711800575256348,-0.2587090134620666
0.5102701187133789,-0.0017356002936139,0.0017187398625537,-1.6141464584507048e-05,0.1104148179292678,-9.710013389587402,-0.2182912677526474
0.5152769088745117,9.72897032625042e-06,0.0017187398625537,0.0034745170269161,0.1104988902807235,-9.729276657104492,-0.1986953616142273
0.5202846527099609,-0.0052262586541473,-2.658932498889044e-05,-1.6141464584507048e-05,0.0910730808973312,-9.708169937133787,-0.1587310880422592
0.5252914428710938,9.72897032625042e-06,0.0052093984559178,0.0034745170269161,0.1100581139326095,-9.730728149414062,-0.2386865317821502
0.5302982330322266,-0.003480929415673,-2.658932498889044e-05,-1.6141464584507048e-05,0.0899711400270462,-9.711800575256348,-0.2587090134620666
0.5353050231933594,9.72897032625042e-06,-0.0017719186143949,-1.6141464584507048e-05,0.1104988902807235,-9.729276657104492,-0.1986953616142273
0.5403120517730713,9.72897032625042e-06,0.0017187398625537,-1.6141464584507048e-05,0.0702726766467094,-9.730672836303713,-0.2195441275835037
0.5453188419342041,9.72897032625042e-06,0.0017187398625537,0.0017291877884417,0.0908526927232742,-9.708895683288574,-0.1787267029285431
0.5503251552581787,9.72897032625042e-06,-0.0017719186143949,0.0034745170269161,0.0704089924693107,-9.710683822631836,-0.2191444486379623
0.5553319454193115,9.72897032625042e-06,-2.658932498889044e-05,-1.6141464584507048e-05,0.1108555942773819,-9.708560943603516,-0.1783001124858856
0.5603389739990234,9.72897032625042e-06,0.0017187398625537,-1.6141464584507048e-05,0.1105511337518692,-9.690024375915527,-0.2178916037082672
0.5653455257415771,9.72897032625042e-06,-2.658932498889044e-05,-1.6141464584507048e-05,0.0707134529948234,-9.729220390319824,-0.1795529723167419
0.57035231590271,9.72897032625042e-06,-2.658932498889044e-05,0.0034745170269161,0.0906323045492172,-9.709622383117676,-0.1987222731113433
0.5753591060638428,-0.003480929415673,0.0017187398625537,-1.6141464584507048e-05,0.0906323045492172,-9.709622383117676,-0.1987222731113433
0.5803656578063965,9.72897032625042e-06,-2.658932498889044e-05,-1.6141464584507048e-05,0.070545308291912,-9.69069480895996,-0.2187447845935821
0.5853724479675293,9.72897032625042e-06,0.0034640692174434,0.0034745170269161,0.0907686203718185,-9.6896333694458,-0.1983226239681244
0.5903792381286621,9.72897032625042e-06,-2.658932498889044e-05,-0.0017614706885069,0.0706293806433677,-9.70995807647705,-0.1991488635540008
0.5953860282897949,9.72897032625042e-06,0.0034640692174434,0.0069651752710342,0.0905482321977615,-9.690359115600586,-0.2183181941509246
0.6003937721252441,9.72897032625042e-06,0.0017187398625537,-1.6141464584507048e-05,0.1101944297552108,-9.710739135742188,-0.2382868528366089
0.6054003238677979,9.72897032625042e-06,0.0017187398625537,0.0034745170269161,0.1102785021066665,-9.730002403259276,-0.2186909466981887
0.6104071140289307,9.72897032625042e-06,0.0017187398625537,0.0017291877884417,0.0706816241145134,-9.670705795288086,-0.2183451056480407
0.6154139041900635,9.72897032625042e-06,0.0052093984559178,-1.6141464584507048e-05,0.0698319002985954,-9.732125282287598,-0.2595352828502655
0.6204204559326172,-0.0017356002936139,-2.658932498889044e-05,0.0034745170269161,0.1104148179292678,-9.710013389587402,-0.2182912677526474
0.62542724609375,9.72897032625042e-06,0.0017187398625537,-1.6141464584507048e-05,0.0902756005525589,-9.730337142944336,-0.2191175371408462
0.6304340362548828,-0.0017356002936139,-2.658932498889044e-05,-1.6141464584507048e-05,0.0901915282011032,-9.711073875427246,-0.2387134432792663
0.6354405879974365,9.72897032625042e-06,0.0017187398625537,-1.6141464584507048e-05,0.0702726766467094,-9.730672836303713,-0.2195441275835037
0.6404473781585693,-0.0017356002936139,0.0017187398625537,-1.6141464584507048e-05,0.070545308291912,-9.69069480895996,-0.2187447845935821
0.6454541683197021,-0.0017356002936139,-2.658932498889044e-05,-1.6141464584507048e-05,0.0905482321977615,-9.690359115600586,-0.2183181941509246
0.6504607200622559,9.72897032625042e-06,0.0034640692174434,0.0034745170269161,0.070324920117855,-9.691420555114746,-0.2387403696775436
0.6554670333862305,-0.003480929415673,-2.658932498889044e-05,-1.6141464584507048e-05,0.0900552123785018,-9.73106288909912,-0.2391131222248077
0.6604738235473633,9.72897032625042e-06,-2.658932498889044e-05,-1.6141464584507048e-05,0.0701886042952537,-9.71140956878662,-0.2391400337219238
0.6654820442199707,-0.0017356002936139,-2.658932498889044e-05,-1.6141464584507048e-05,0.0909049361944198,-9.669644355773926,-0.197922945022583
0.6704883575439453,-0.003480929415673,-2.658932498889044e-05,-0.0017614706885069,0.0908526927232742,-9.708895683288574,-0.1787267029285431
0.6754951477050781,-0.0017356002936139,0.0017187398625537,0.0034745170269161,0.0906323045492172,-9.709622383117676,-0.1987222731113433
0.6805016994476318,9.72897032625042e-06,-2.658932498889044e-05,0.0034745170269161,0.0901392847299575,-9.750326156616213,-0.2195172160863876
0.6855082511901855,9.72897032625042e-06,-0.0017719186143949,-1.6141464584507048e-05,0.0902756005525589,-9.730337142944336,-0.2191175371408462
0.6905148029327393,-0.0017356002936139,-2.658932498889044e-05,-1.6141464584507048e-05,0.070324920117855,-9.691420555114746,-0.2387403696775436
0.6955218315124512,9.72897032625042e-06,-2.658932498889044e-05,-1.6141464584507048e-05,0.0906323045492172,-9.709622383117676,-0.1987222731113433
0.7005283832550049,-0.0017356002936139,0.0034640692174434,-1.6141464584507048e-05,0.0906323045492172,-9.709622383117676,-0.1987222731113433
0.7055349349975586,-0.003480929415673,0.0052093984559178,-1.6141464584507048e-05,0.0704089924693107,-9.710683822631836,-0.2191444486379623
0.7105414867401123,9.72897032625042e-06,-0.0017719186143949,0.0017291877884417,0.0902756005525589,-9.730337142944336,-0.2191175371408462
0.715548038482666,-0.0017356002936139,0.0017187398625537,-1.6141464584507048e-05,0.0901392847299575,-9.750326156616213,-0.2195172160863876
0.7205548286437988,9.72897032625042e-06,-2.658932498889044e-05,-1.6141464584507048e-05,0.0900552123785018,-9.73106288909912,-0.2391131222248077
0.7255616188049316,9.72897032625042e-06,-2.658932498889044e-05,-0.0017614706885069,0.0905482321977615,-9.690359115600586,-0.2183181941509246
0.7305691242218018,0.0017550581833347,0.0034640692174434,-1.6141464584507048e-05,0.0903278440237045,-9.691084861755373,-0.2383137792348861
0.7355754375457764,9.72897032625042e-06,-2.658932498889044e-05,-1.6141464584507048e-05,0.0904119163751602,-9.71034812927246,-0.2187178581953048
0.7405822277069092,9.72897032625042e-06,0.0017187398625537,-1.6141464584507048e-05,0.1102785021066665,-9.730002403259276,-0.2186909466981887
0.7455887794494629,-0.0017356002936139,-2.658932498889044e-05,0.0017291877884417,0.0902756005525589,-9.730337142944336,-0.2191175371408462
0.7505955696105957,9.72897032625042e-06,-2.658932498889044e-05,-1.6141464584507048e-05,0.0708497688174247,-9.70923137664795,-0.1791532933712005
0.7556021213531494,-0.003480929415673,0.0017187398625537,0.0017291877884417,0.0903596729040145,-9.749600410461426,-0.1995216310024261
0.7606086730957031,9.72897032625042e-06,-2.658932498889044e-05,-1.6141464584507048e-05,0.1102785021066665,-9.730002403259276,-0.2186909466981887
0.7656152248382568,9.72897032625042e-06,-2.658932498889044e-05,0.0017291877884417,0.070545308291912,-9.69069480895996,-0.2187447845935821
0.7706217765808105,9.72897032625042e-06,-0.0017719186143949,-0.0017614706885069,0.0501016229391098,-9.692481994628906,-0.2591625452041626
0.7756283283233643,9.72897032625042e-06,0.0069547276943922,0.0017291877884417,0.0503220111131668,-9.691755294799805,-0.2391669601202011
0.7806351184844971,9.72897032625042e-06,0.0052093984559178,0.0017291877884417,0.0897507518529892,-9.712526321411133,-0.2787045836448669
0.7856414318084717,9.72897032625042e-06,-2.658932498889044e-05,-1.6141464584507048e-05,0.0707134529948234,-9.729220390319824,-0.1795529723167419
0.7906482219696045,-0.0017356002936139,-2.658932498889044e-05,-1.6141464584507048e-05,0.070545308291912,-9.69069480895996,-0.2187447845935821
0.7956547737121582,9.72897032625042e-06,-0.0017719186143949,-0.0035067999269813,0.0902756005525589,-9.730337142944336,-0.2191175371408462
0.8006622791290283,-0.0017356002936139,0.0017187398625537,0.0017291877884417,0.1099740415811538,-9.711465835571287,-0.2582824230194092
0.805668830871582,9.72897032625042e-06,-2.658932498889044e-05,-1.6141464584507048e-05,0.1106874495744705,-9.670035362243652,-0.2174919247627258
0.8106756210327148,9.72897032625042e-06,0.0034640692174434,-1.6141464584507048e-05,0.0908208638429641,-9.650381088256836,-0.2175188362598419
0.8156821727752686,9.72897032625042e-06,-2.658932498889044e-05,-0.0017614706885069,0.0900552123785018,-9.73106288909912,-0.2391131222248077
0.8206882476806641,9.72897032625042e-06,0.0017187398625537,-1.6141464584507048e-05,0.0903596729040145,-9.749600410461426,-0.1995216310024261
0.8256950378417969,-0.003480929415673,0.0017187398625537,0.0017291877884417,0.0904119163751602,-9.71034812927246,-0.2187178581953048
0.8307015895843506,9.72897032625042e-06,0.0017187398625537,0.0017291877884417,0.0907686203718185,-9.6896333694458,-0.1983226239681244
0.8357081413269043,9.72897032625042e-06,-2.658932498889044e-05,-1.6141464584507048e-05,0.0907686203718185,-9.6896333694458,-0.1983226239681244
0.8407149314880371,9.72897032625042e-06,0.0034640692174434,-1.6141464584507048e-05,0.1105511337518692,-9.690024375915527,-0.2178916037082672
0.8457212448120117,-0.0017356002936139,0.0034640692174434,0.0017291877884417,0.0899711400270462,-9.711800575256348,-0.2587090134620666
0.8507280349731445,9.72897032625042e-06,0.0034640692174434,-1.6141464584507048e-05,0.1093969494104385,-9.73290729522705,-0.2986732721328735
0.8557343482971191,9.72897032625042e-06,-2.658932498889044e-05,-1.6141464584507048e-05,0.0896144360303878,-9.732515335083008,-0.2791042923927307
0.8607409000396729,9.72897032625042e-06,0.0017187398625537,-1.6141464584507048e-05,0.0904641598463058,-9.671095848083496,-0.2379141002893448
0.865748405456543,9.72897032625042e-06,0.0017187398625537,0.0017291877884417,0.1107715219259262,-9.689298629760742,-0.1978960335254669
0.8707549571990967,-0.003480929415673,0.0034640692174434,-1.6141464584507048e-05,0.0702726766467094,-9.730672836303713,-0.2195441275835037
0.8757615089416504,9.72897032625042e-06,-2.658932498889044e-05,0.0017291877884417,0.0903278440237045,-9.691084861755373,-0.2383137792348861
0.880767822265625,9.72897032625042e-06,0.0017187398625537,-1.6141464584507048e-05,0.0903278440237045,-9.691084861755373,-0.2383137792348861
0.8857743740081787,-0.003480929415673,0.0017187398625537,-1.6141464584507048e-05,0.0902756005525589,-9.730337142944336,-0.2191175371408462
0.8907809257507324,9.72897032625042e-06,0.0017187398625537,-1.6141464584507048e-05,0.0906004756689071,-9.65110683441162,-0.2375144213438034
0.895787239074707,9.72897032625042e-06,-2.658932498889044e-05,-1.6141464584507048e-05,0.0905482321977615,-9.690359115600586,-0.2183181941509246
0.9007940292358398,-0.0017356002936139,0.0034640692174434,0.0017291877884417,0.0907163769006729,-9.72888469696045,-0.1791263818740844
0.9058003425598145,9.72897032625042e-06,-2.658932498889044e-05,-1.6141464584507048e-05,0.0704089924693107,-9.710683822631836,-0.2191444486379623
0.9108068943023682,9.72897032625042e-06,0.0034640692174434,-1.6141464584507048e-05,0.0901915282011032,-9.711073875427246,-0.2387134432792663
0.9158132076263428,-0.0017356002936139,0.0052093984559178,-1.6141464584507048e-05,0.1108555942773819,-9.708560943603516,-0.1783001124858856
0.9208197593688965,9.72897032625042e-06,0.0052093984559178,-1.6141464584507048e-05,0.1309948116540908,-9.688237190246582,-0.1774738430976867
0.925825834274292,9.72897032625042e-06,0.0034640692174434,-1.6141464584507048e-05,0.1108555942773819,-9.708560943603516,-0.1783001124858856
0.9308328628540039,9.72897032625042e-06,-2.658932498889044e-05,-1.6141464584507048e-05,0.0702726766467094,-9.730672836303713,-0.2195441275835037
0.9358391761779785,9.72897032625042e-06,0.0017187398625537,0.0017291877884417,0.0900552123785018,-9.73106288909912,-0.2391131222248077
0.9408466815948486,9.72897032625042e-06,0.0069547276943922,-1.6141464584507048e-05,0.0704089924693107,-9.710683822631836,-0.2191444486379623
0.9458529949188232,-0.0017356002936139,-2.658932498889044e-05,0.0017291877884417,0.0901074558496475,-9.691811561584473,-0.2583093643188476
0.950859546661377,9.72897032625042e-06,0.0052093984559178,0.0034745170269161,0.1106352061033248,-9.709287643432615,-0.1982956826686859
0.9558658599853516,9.72897032625042e-06,-2.658932498889044e-05,-1.6141464584507048e-05,0.1104148179292678,-9.710013389587402,-0.2182912677526474
0.9608726501464844,9.72897032625042e-06,0.0017187398625537,-1.6141464584507048e-05,0.1102785021066665,-9.730002403259276,-0.2186909466981887
0.965878963470459,-0.0017356002936139,0.0034640692174434,0.0017291877884417,0.0902756005525589,-9.730337142944336,-0.2191175371408462
0.9708850383758545,-0.0017356002936139,0.0034640692174434,0.0017291877884417,0.0902756005525589,-9.730337142944336,-0.2191175371408462
0.9758918285369873,9.72897032625042e-06,0.0052093984559178,0.0017291877884417,0.1101944297552108,-9.710739135742188,-0.2382868528366089
0.9808981418609619,-0.0017356002936139,0.0017187398625537,-1.6141464584507048e-05,0.1105511337518692,-9.690024375915527,-0.2178916037082672
0.9859044551849365,-0.0017356002936139,-2.658932498889044e-05,-1.6141464584507048e-05,0.0903278440237045,-9.691084861755373,-0.2383137792348861
0.9909112453460693,9.72897032625042e-06,-2.658932498889044e-05,0.0017291877884417,0.0906323045492172,-9.709622383117676,-0.1987222731113433
0.995917558670044,9.72897032625042e-06,0.0017187398625537,-1.6141464584507048e-05,0.1104148179292678,-9.710013389587402,-0.2182912677526474
1.0009238719940186,9.72897032625042e-06,-2.658932498889044e-05,-1.6141464584507048e-05,0.0904959887266159,-9.72961139678955,-0.1991219520568847
1.0059311389923096,9.72897032625042e-06,-2.658932498889044e-05,-1.6141464584507048e-05,0.1104148179292678,-9.710013389587402,-0.2182912677526474
1.0109376907348633,-0.0017356002936139,0.0034640692174434,-1.6141464584507048e-05,0.0901915282011032,-9.711073875427246,-0.2387134432792663
1.015944004058838,9.72897032625042e-06,0.0017187398625537,0.0017291877884417,0.0904119163751602,-9.71034812927246,-0.2187178581953048
1.0209505558013916,9.72897032625042e-06,0.0034640692174434,0.0017291877884417,0.0506264716386795,-9.71029281616211,-0.1995754539966583
1.0259568691253662,-0.0017356002936139,-2.658932498889044e-05,-1.6141464584507048e-05,0.0904959887266159,-9.72961139678955,-0.1991219520568847
1.03096342086792,-0.0017356002936139,-2.658932498889044e-05,-1.6141464584507048e-05,0.0900029689073562,-9.770315170288086,-0.219916895031929
1.0359697341918945,-0.0017356002936139,-2.658932498889044e-05,-1.6141464584507048e-05,0.1306381076574325,-9.70895290374756,-0.1978690922260284
1.0409760475158691,-0.003480929415673,-2.658932498889044e-05,-1.6141464584507048e-05,0.0900552123785018,-9.73106288909912,-0.2391131222248077
1.0459823608398438,9.72897032625042e-06,-2.658932498889044e-05,0.0017291877884417,0.0906323045492172,-9.709622383117676,-0.1987222731113433
1.0509886741638184,-0.0017356002936139,-2.658932498889044e-05,-1.6141464584507048e-05,0.0908526927232742,-9.708895683288574,-0.1787267029285431
1.055995225906372,9.72897032625042e-06,0.0052093984559178,-1.6141464584507048e-05,0.0909049361944198,-9.669644355773926,-0.197922945022583
1.0610015392303467,-0.0017356002936139,-2.658932498889044e-05,-1.6141464584507048e-05,0.070765696465969,-9.689969062805176,-0.1987492144107818
1.0660078525543213,-0.0017356002936139,0.0034640692174434,0.0017291877884417,0.0703567564487457,-9.7499361038208,-0.1999482214450836
1.0710151195526123,-0.0017356002936139,0.0034640692174434,-1.6141464584507048e-05,0.0902756005525589,-9.730337142944336,-0.2191175371408462
1.076021432876587,9.72897032625042e-06,-2.658932498889044e-05,0.0017291877884417,0.1102785021066665,-9.730002403259276,-0.2186909466981887
1.0810277462005615,-0.003480929415673,-2.658932498889044e-05,-0.0017614706885069,0.0706293806433677,-9.70995807647705,-0.1991488635540008
1.0860342979431152,9.72897032625042e-06,-2.658932498889044e-05,0.0017291877884417,0.1102466732263565,-9.67148780822754,-0.2574830949306488
1.091040849685669,9.72897032625042e-06,0.0017187398625537,-1.6141464584507048e-05,0.0903278440237045,-9.691084861755373,-0.2383137792348861
1.0960469245910645,-0.0017356002936139,0.0034640692174434,-1.6141464584507048e-05,0.0704089924693107,-9.710683822631836,-0.2191444486379623
1.101053237915039,9.72897032625042e-06,-2.658932498889044e-05,-1.6141464584507048e-05,0.070545308291912,-9.69069480895996,-0.2187447845935821
1.1060595512390137,-0.0017356002936139,-2.658932498889044e-05,-1.6141464584507048e-05,0.1099740415811538,-9.711465835571287,-0.2582824230194092
1.1110658645629883,9.72897032625042e-06,-0.0017719186143949,-1.6141464584507048e-05,0.0904119163751602,-9.71034812927246,-0.2187178581953048
1.116072177886963,-0.0017356002936139,0.0052093984559178,-1.6141464584507048e-05,0.1106352061033248,-9.709287643432615,-0.1982956826686859
1.1210787296295166,9.72897032625042e-06,-2.658932498889044e-05,0.0017291877884417,0.0904119163751602,-9.71034812927246,-0.2187178581953048
1.1260850429534912,-0.0017356002936139,-2.658932498889044e-05,-1.6141464584507048e-05,0.1102785021066665,-9.730002403259276,-0.2186909466981887
1.1310913562774658,9.72897032625042e-06,-2.658932498889044e-05,0.0034745170269161,0.1101944297552108,-9.710739135742188,-0.2382868528366089
1.1360974311828613,-0.0017356002936139,-2.658932498889044e-05,0.0017291877884417,0.0500493794679641,-9.731733322143556,-0.2399663031101226
1.1411046981811523,9.72897032625042e-06,0.0034640692174434,-1.6141464584507048e-05,0.0906845480203628,-9.670370101928713,-0.2179185152053833
1.146111011505127,9.72897032625042e-06,0.0069547276943922,0.0034745170269161,0.1105511337518692,-9.690024375915527,-0.2178916037082672
1.1511173248291016,-0.0017356002936139,0.0017187398625537,-1.6141464584507048e-05,0.0902756005525589,-9.730337142944336,-0.2191175371408462
1.1561238765716553,-0.003480929415673,-2.658932498889044e-05,-1.6141464584507048e-05,0.1299769431352615,-9.71113109588623,-0.2578558325767517
1.161130428314209,-0.0017356002936139,-2.658932498889044e-05,0.0034745170269161,0.070104531943798,-9.692147254943848,-0.2587359547615051
1.1661362648010254,9.72897032625042e-06,0.0034640692174434,0.0034745170269161,0.0906323045492172,-9.709622383117676,-0.1987222731113433
1.171142578125,9.72897032625042e-06,0.0017187398625537,0.0017291877884417,0.0904959887266159,-9.72961139678955,-0.1991219520568847
1.1761488914489746,-0.0017356002936139,-2.658932498889044e-05,0.0017291877884417,0.1305540353059768,-9.689689636230469,-0.2174650132656097
1.1811549663543701,9.72897032625042e-06,0.0017187398625537,0.0034745170269161,0.0902756005525589,-9.730337142944336,-0.2191175371408462
1.1861610412597656,-0.0017356002936139,-2.658932498889044e-05,-1.6141464584507048e-05,0.0507105439901351,-9.729555130004885,-0.1799795627593994
1.1911678314208984,9.72897032625042e-06,0.0034640692174434,-1.6141464584507048e-05,0.1101944297552108,-9.710739135742188,-0.2382868528366089
1.196173906326294,-0.0017356002936139,0.0017187398625537,0.0017291877884417,0.0910730808973312,-9.708169937133787,-0.1587310880422592
1.2011804580688477,9.72897032625042e-06,-2.658932498889044e-05,0.0017291877884417,0.0504583269357681,-9.67176628112793,-0.2387672811746597
1.2061874866485596,-0.003480929415673,-2.658932498889044e-05,-1.6141464584507048e-05,0.0905482321977615,-9.690359115600586,-0.2183181941509246
1.211193561553955,9.72897032625042e-06,0.0017187398625537,-1.6141464584507048e-05,0.0700522884726524,-9.731398582458496,-0.2395397126674652
1.2161998748779297,9.72897032625042e-06,-2.658932498889044e-05,0.0052198460325598,0.0699159801006317,-9.751387596130373,-0.2399393916130066
1.2212061882019043,9.72897032625042e-06,-2.658932498889044e-05,-1.6141464584507048e-05,0.070104531943798,-9.692147254943848,-0.2587359547615051
1.226212501525879,-0.003480929415673,0.0034640692174434,-0.0017614706885069,0.1104148179292678,-9.710013389587402,-0.2182912677526474
1.2312188148498535,-0.0017356002936139,-2.658932498889044e-05,-1.6141464584507048e-05,0.0909049361944198,-9.669644355773926,-0.197922945022583
1.236224889755249,9.72897032625042e-06,-2.658932498889044e-05,-1.6141464584507048e-05,0.0906323045492172,-9.709622383117676,-0.1987222731113433
1.2412312030792236,-0.0017356002936139,-0.0017719186143949,-1.6141464584507048e-05,0.0708497688174247,-9.70923137664795,-0.1791532933712005
1.24623703956604,9.72897032625042e-06,0.0034640692174434,0.0017291877884417,0.0908526927232742,-9.708895683288574,-0.1787267029285431
1.2512435913085938,9.72897032625042e-06,0.0017187398625537,-1.6141464584507048e-05,0.0904119163751602,-9.71034812927246,-0.2187178581953048
1.2562494277954102,9.72897032625042e-06,0.0034640692174434,-1.6141464584507048e-05,0.0905482321977615,-9.690359115600586,-0.2183181941509246
1.261256456375122,-0.003480929415673,-2.658932498889044e-05,0.0052198460325598,0.1099740415811538,-9.711465835571287,-0.2582824230194092
1.2662622928619385,-0.003480929415673,0.0017187398625537,-1.6141464584507048e-05,0.0902756005525589,-9.730337142944336,-0.2191175371408462
1.2712693214416504,9.72897032625042e-06,-2.658932498889044e-05,-1.6141464584507048e-05,0.0696955919265747,-9.752114295959473,-0.2599349617958069
1.2762746810913086,9.72897032625042e-06,-2.658932498889044e-05,-1.6141464584507048e-05,0.0907163769006729,-9.72888469696045,-0.1791263818740844
1.2812817096710205,-0.003480929415673,-2.658932498889044e-05,-1.6141464584507048e-05,0.1307744234800338,-9.688963890075684,-0.1974694430828094
1.2862880229949951,0.0035003875382244,-2.658932498889044e-05,-1.6141464584507048e-05,0.0904119163751602,-9.71034812927246,-0.2187178581953048
1.2912940979003906,-0.003480929415673,0.0017187398625537,-1.6141464584507048e-05,0.070545308291912,-9.69069480895996,-0.2187447845935821
1.2963004112243652,9.72897032625042e-06,0.0017187398625537,-1.6141464584507048e-05,0.0902756005525589,-9.730337142944336,-0.2191175371408462
1.3013067245483398,9.72897032625042e-06,0.0034640692174434,0.0017291877884417,0.0901915282011032,-9.711073875427246,-0.2387134432792663
1.3063127994537354,-0.0017356002936139,0.0052093984559178,0.0034745170269161,0.0897507518529892,-9.712526321411133,-0.2787045836448669
1.3113188743591309,9.72897032625042e-06,-2.658932498889044e-05,-1.6141464584507048e-05,0.0905163884162902,-9.631844520568848,-0.2571103274822235
1.3163249492645264,9.72897032625042e-06,-2.658932498889044e-05,0.0017291877884417,0.0508991032838821,-9.67031478881836,-0.1987761259078979
1.3213310241699219,-0.003480929415673,-2.658932498889044e-05,0.0017291877884417,0.1302291750907898,-9.768919944763184,-0.1990681290626526
1.3263373374938965,9.72897032625042e-06,0.0017187398625537,-1.6141464584507048e-05,0.1102785021066665,-9.730002403259276,-0.2186909466981887
1.331343650817871,-0.0017356002936139,0.0052093984559178,0.0017291877884417,0.0703567564487457,-9.7499361038208,-0.1999482214450836
1.3363497257232666,-0.0017356002936139,-2.658932498889044e-05,0.0017291877884417,0.1107715219259262,-9.689298629760742,-0.1978960335254669
1.3413560390472412,9.72897032625042e-06,0.0017187398625537,-1.6141464584507048e-05,0.1106874495744705,-9.670035362243652,-0.2174919247627258
1.3463621139526367,-0.0017356002936139,0.0017187398625537,-1.6141464584507048e-05,0.0909049361944198,-9.669644355773926,-0.197922945022583
1.3513691425323486,9.72897032625042e-06,0.0017187398625537,-1.6141464584507048e-05,0.0901074558496475,-9.691811561584473,-0.2583093643188476
1.3563752174377441,-0.003480929415673,-2.658932498889044e-05,-0.0017614706885069,0.0696955919265747,-9.752114295959473,-0.2599349617958069
1.3613812923431396,-0.003480929415673,-2.658932498889044e-05,0.0034745170269161,0.0901074558496475,-9.691811561584473,-0.2583093643188476
1.3663873672485352,9.72897032625042e-06,-2.658932498889044e-05,-1.6141464584507048e-05,0.0909890085458755,-9.6889066696167,-0.1783270239830017
1.3713934421539307,9.72897032625042e-06,-2.658932498889044e-05,-1.6141464584507048e-05,0.1099740415811538,-9.711465835571287,-0.2582824230194092
1.3763999938964844,-0.0017356002936139,-2.658932498889044e-05,-1.6141464584507048e-05,0.0908526927232742,-9.708895683288574,-0.1787267029285431
1.3814058303833008,9.72897032625042e-06,-2.658932498889044e-05,-1.6141464584507048e-05,0.0902756005525589,-9.730337142944336,-0.2191175371408462
1.3864121437072754,9.72897032625042e-06,-2.658932498889044e-05,-1.6141464584507048e-05,0.0706293806433677,-9.70995807647705,-0.1991488635540008
1.39141845703125,9.72897032625042e-06,-2.658932498889044e-05,0.0017291877884417,0.0902756005525589,-9.730337142944336,-0.2191175371408462
1.3964242935180664,9.72897032625042e-06,0.0034640692174434,0.0017291877884417,0.0706816241145134,-9.670705795288086,-0.2183451056480407
1.401430368423462,9.72897032625042e-06,-2.658932498889044e-05,-1.6141464584507048e-05,0.0909571647644043,-9.63039207458496,-0.2171191573143005
1.4064364433288574,9.72897032625042e-06,-2.658932498889044e-05,0.0017291877884417,0.1104988902807235,-9.729276657104492,-0.1986953616142273
1.411442518234253,-0.003480929415673,0.0034640692174434,0.0017291877884417,0.1104148179292678,-9.710013389587402,-0.2182912677526474
1.416449785232544,9.72897032625042e-06,0.0017187398625537,0.0052198460325598,0.0704930648207664,-9.729947090148926,-0.1995485424995422
1.4214558601379395,-0.0017356002936139,-2.658932498889044e-05,-1.6141464584507048e-05,0.1105511337518692,-9.690024375915527,-0.2178916037082672
1.426461935043335,-0.0017356002936139,0.0069547276943922,-1.6141464584507048e-05,0.0906323045492172,-9.709622383117676,-0.1987222731113433
1.4314680099487305,9.72897032625042e-06,0.0017187398625537,0.0017291877884417,0.1103307455778122,-9.690750122070312,-0.2378871887922287
1.4364738464355469,9.72897032625042e-06,-0.0017719186143949,-1.6141464584507048e-05,0.0904959887266159,-9.72961139678955,-0.1991219520568847
1.4414799213409424,9.72897032625042e-06,-2.658932498889044e-05,0.0017291877884417,0.0899711400270462,-9.711800575256348,-0.2587090134620666
1.446486234664917,-0.003480929415673,-2.658932498889044e-05,-0.0035067999269813,0.0906323045492172,-9.709622383117676,-0.1987222731113433
1.451493501663208,9.72897032625042e-06,0.0017187398625537,-1.6141464584507048e-05,0.1107715219259262,-9.689298629760742,-0.1978960335254669
1.45650053024292,9.72897032625042e-06,0.0017187398625537,-1.6141464584507048e-05,0.0904119163751602,-9.71034812927246,-0.2187178581953048
1.4615073204040527,9.72897032625042e-06,0.0017187398625537,-1.6141464584507048e-05,0.0905482321977615,-9.690359115600586,-0.2183181941509246
1.4665124416351318,9.72897032625042e-06,0.0017187398625537,0.0017291877884417,0.070765696465969,-9.689969062805176,-0.1987492144107818
1.4715168476104736,-0.0017356002936139,-0.0017719186143949,0.0017291877884417,0.0902756005525589,-9.730337142944336,-0.2191175371408462
1.4765217304229736,9.72897032625042e-06,-2.658932498889044e-05,0.0034745170269161,0.1105511337518692,-9.690024375915527,-0.2178916037082672
1.48152494430542,9.72897032625042e-06,-2.658932498889044e-05,-1.6141464584507048e-05,0.1107715219259262,-9.689298629760742,-0.1978960335254669
1.4865288734436035,9.72897032625042e-06,-2.658932498889044e-05,-1.6141464584507048e-05,0.0906323045492172,-9.709622383117676,-0.1987222731113433
1.4915339946746826,9.72897032625042e-06,-2.658932498889044e-05,0.0034745170269161,0.1101944297552108,-9.710739135742188,-0.2382868528366089
1.4965381622314453,9.72897032625042e-06,0.0017187398625537,-1.6141464584507048e-05,0.1110759824514389,-9.70783519744873,-0.1583044975996017
1.501542329788208,9.72897032625042e-06,-2.658932498889044e-05,-1.6141464584507048e-05,0.0901074558496475,-9.691811561584473,-0.2583093643188476
1.5065464973449707,-0.0017356002936139,-2.658932498889044e-05,-1.6141464584507048e-05,0.0902437716722488,-9.671822547912598,-0.2579096853733063
1.5115501880645752,9.72897032625042e-06,-2.658932498889044e-05,-1.6141464584507048e-05,0.0906323045492172,-9.709622383117676,-0.1987222731113433
1.516554355621338,9.72897032625042e-06,0.0017187398625537,-1.6141464584507048e-05,0.0908526927232742,-9.708895683288574,-0.1787267029285431
1.5215585231781006,-0.0017356002936139,0.0017187398625537,-1.6141464584507048e-05,0.0900552123785018,-9.73106288909912,-0.2391131222248077
1.5265624523162842,-0.0017356002936139,-2.658932498889044e-05,0.0017291877884417,0.0904119163751602,-9.71034812927246,-0.2187178581953048
1.531566858291626,-0.0017356002936139,-2.658932498889044e-05,0.0034745170269161,0.0907686203718185,-9.6896333694458,-0.1983226239681244
1.5365705490112305,-0.0017356002936139,0.0034640692174434,-1.6141464584507048e-05,0.1106352061033248,-9.709287643432615,-0.1982956826686859
1.5415754318237305,9.72897032625042e-06,-2.658932498889044e-05,0.0034745170269161,0.0908526927232742,-9.708895683288574,-0.1787267029285431
1.5465795993804932,9.72897032625042e-06,0.0034640692174434,-1.6141464584507048e-05,0.0900552123785018,-9.73106288909912,-0.2391131222248077
1.5515837669372559,-0.0017356002936139,0.0017187398625537,0.0034745170269161,0.1304177194833755,-9.709678649902344,-0.2178646773099899
1.5565876960754395,9.72897032625042e-06,0.0017187398625537,-1.6141464584507048e-05,0.0702408477663993,-9.672158241271973,-0.2583362758159637
1.561591625213623,-0.0017356002936139,-2.658932498889044e-05,0.0034745170269161,0.0704089924693107,-9.710683822631836,-0.2191444486379623
1.5665960311889648,-0.0017356002936139,0.0017187398625537,-1.6141464584507048e-05,0.0909049361944198,-9.669644355773926,-0.197922945022583
1.5715997219085693,9.72897032625042e-06,0.0017187398625537,-1.6141464584507048e-05,0.0907686203718185,-9.6896333694458,-0.1983226239681244
1.576603651046753,-0.0017356002936139,0.0034640692174434,-1.6141464584507048e-05,0.0902756005525589,-9.730337142944336,-0.2191175371408462
1.5816073417663574,-0.0017356002936139,-0.0017719186143949,-1.6141464584507048e-05,0.070324920117855,-9.691420555114746,-0.2387403696775436
1.586611032485962,9.72897032625042e-06,-2.658932498889044e-05,0.0017291877884417,0.0901915282011032,-9.711073875427246,-0.2387134432792663
1.5916152000427246,9.72897032625042e-06,0.0017187398625537,-1.6141464584507048e-05,0.070765696465969,-9.689969062805176,-0.1987492144107818
1.5966191291809082,-0.0017356002936139,-2.658932498889044e-05,-1.6141464584507048e-05,0.0906323045492172,-9.709622383117676,-0.1987222731113433
1.601623296737671,9.72897032625042e-06,0.0052093984559178,0.0034745170269161,0.0900552123785018,-9.73106288909912,-0.2391131222248077
1.6066272258758545,9.72897032625042e-06,0.0034640692174434,-1.6141464584507048e-05,0.0904641598463058,-9.671095848083496,-0.2379141002893448
1.611630916595459,-0.003480929415673,0.0017187398625537,-1.6141464584507048e-05,0.0901915282011032,-9.711073875427246,-0.2387134432792663
1.616636037826538,-0.0017356002936139,-2.658932498889044e-05,0.0034745170269161,0.0901915282011032,-9.711073875427246,-0.2387134432792663
1.6216397285461426,9.72897032625042e-06,0.0034640692174434,-1.6141464584507048e-05,0.0904959887266159,-9.72961139678955,-0.1991219520568847
1.6266436576843262,0.0035003875382244,0.0017187398625537,0.0017291877884417,0.0905482321977615,-9.690359115600586,-0.2183181941509246
1.6316473484039307,-0.0017356002936139,0.0017187398625537,0.0017291877884417,0.1106874495744705,-9.670035362243652,-0.2174919247627258
1.6366510391235352,9.72897032625042e-06,-2.658932498889044e-05,0.0017291877884417,0.1109919100999832,-9.68857192993164,-0.1779004335403442
1.6416552066802979,-0.003480929415673,0.0017187398625537,-1.6141464584507048e-05,0.1104988902807235,-9.729276657104492,-0.1986953616142273
1.6466588973999023,0.0017550581833347,-2.658932498889044e-05,-1.6141464584507048e-05,0.0902756005525589,-9.730337142944336,-0.2191175371408462
1.651662826538086,9.72897032625042e-06,-2.658932498889044e-05,0.0017291877884417,0.0701363682746887,-9.750661849975586,-0.2199438065290451
1.6566667556762695,-0.0017356002936139,-2.658932498889044e-05,0.0017291877884417,0.0700522884726524,-9.731398582458496,-0.2395397126674652
1.661670446395874,-0.003480929415673,0.0017187398625537,-0.0017614706885069,0.1103307455778122,-9.690750122070312,-0.2378871887922287
1.6666743755340576,9.72897032625042e-06,0.0034640692174434,0.0017291877884417,0.0701886042952537,-9.71140956878662,-0.2391400337219238
1.6716790199279785,9.72897032625042e-06,0.0017187398625537,0.0017291877884417,0.0701886042952537,-9.71140956878662,-0.2391400337219238
1.676682949066162,9.72897032625042e-06,-2.658932498889044e-05,0.0017291877884417,0.0907686203718185,-9.6896333694458,-0.1983226239681244
1.6816866397857666,-0.0017356002936139,0.0017187398625537,-1.6141464584507048e-05,0.0911775529384613,-9.629666328430176,-0.1971235871315002
1.686690330505371,9.72897032625042e-06,-2.658932498889044e-05,0.0017291877884417,0.0909890085458755,-9.6889066696167,-0.1783270239830017
1.6916940212249756,-0.0017356002936139,0.0034640692174434,-1.6141464584507048e-05,0.0703567564487457,-9.7499361038208,-0.1999482214450836
1.69669771194458,-0.003480929415673,0.0017187398625537,-1.6141464584507048e-05,0.0501334592700004,-9.750996589660645,-0.2203703969717025
1.7017016410827637,0.0035003875382244,0.0017187398625537,-0.0017614706885069,0.0701886042952537,-9.71140956878662,-0.2391400337219238
1.7067053318023682,9.72897032625042e-06,0.0034640692174434,-1.6141464584507048e-05,0.1106874495744705,-9.670035362243652,-0.2174919247627258
1.7117090225219727,9.72897032625042e-06,0.0017187398625537,0.0017291877884417,0.0911253243684768,-9.668917655944824,-0.1779273450374603
1.7167129516601562,-0.0017356002936139,0.0017187398625537,-1.6141464584507048e-05,0.0904119163751602,-9.71034812927246,-0.2187178581953048
1.7217166423797607,9.72897032625042e-06,-2.658932498889044e-05,0.0034745170269161,0.0700522884726524,-9.731398582458496,-0.2395397126674652
1.7267203330993652,-0.0017356002936139,0.0017187398625537,-1.6141464584507048e-05,0.1099217981100082,-9.750717163085938,-0.2390862107276916
1.7317237854003906,-0.003480929415673,0.0034640692174434,-1.6141464584507048e-05,0.070545308291912,-9.69069480895996,-0.2187447845935821
1.7367274761199951,9.72897032625042e-06,0.0017187398625537,0.0034745170269161,0.1107715219259262,-9.689298629760742,-0.1978960335254669
1.741732120513916,9.72897032625042e-06,0.0017187398625537,-0.0017614706885069,0.0706293806433677,-9.70995807647705,-0.1991488635540008
1.7467360496520996,9.72897032625042e-06,-2.658932498889044e-05,0.0034745170269161,0.0906323045492172,-9.709622383117676,-0.1987222731113433
1.7517385482788086,9.72897032625042e-06,-2.658932498889044e-05,-1.6141464584507048e-05,0.0905482321977615,-9.690359115600586,-0.2183181941509246
1.7567431926727295,-0.003480929415673,0.0017187398625537,-1.6141464584507048e-05,0.1101944297552108,-9.710739135742188,-0.2382868528366089
1.761746883392334,-0.003480929415673,-2.658932498889044e-05,-1.6141464584507048e-05,0.0902756005525589,-9.730337142944336,-0.2191175371408462
1.7667505741119385,9.72897032625042e-06,-2.658932498889044e-05,-1.6141464584507048e-05,0.070765696465969,-9.689969062805176,-0.1987492144107818
1.771754264831543,-0.0017356002936139,0.0017187398625537,0.0017291877884417,0.0903278440237045,-9.691084861755373,-0.2383137792348861
1.7767574787139893,9.72897032625042e-06,-2.658932498889044e-05,-1.6141464584507048e-05,0.0907686203718185,-9.6896333694458,-0.1983226239681244
1.7817611694335938,9.72897032625042e-06,0.0017187398625537,0.0034745170269161,0.1112122982740402,-9.687846183776855,-0.1579048335552215
1.7867648601531982,9.72897032625042e-06,0.0017187398625537,0.0017291877884417,0.0499130710959434,-9.75172233581543,-0.240365982055664
1.7917683124542236,9.72897032625042e-06,0.0034640692174434,-1.6141464584507048e-05,0.0904119163751602,-9.71034812927246,-0.2187178581953048
1.7967720031738281,-0.003480929415673,-2.658932498889044e-05,-1.6141464584507048e-05,0.0907686203718185,-9.6896333694458,-0.1983226239681244
1.8017756938934326,-0.0052262586541473,-2.658932498889044e-05,-1.6141464584507048e-05,0.0902756005525589,-9.730337142944336,-0.2191175371408462
1.806779146194458,-0.003480929415673,-2.658932498889044e-05,0.0017291877884417,0.0903278440237045,-9.691084861755373,-0.2383137792348861
1.811784029006958,9.72897032625042e-06,-2.658932498889044e-05,0.0052198460325598,0.1104148179292678,-9.710013389587402,-0.2182912677526474
1.8167870044708252,9.72897032625042e-06,0.0052093984559178,-1.6141464584507048e-05,0.0904119163751602,-9.71034812927246,-0.2187178581953048
1.8217906951904297,-0.003480929415673,0.0017187398625537,-1.6141464584507048e-05,0.0903278440237045,-9.691084861755373,-0.2383137792348861
1.826794147491455,9.72897032625042e-06,0.0034640692174434,-1.6141464584507048e-05,0.0905482321977615,-9.690359115600586,-0.2183181941509246
1.8317975997924805,9.72897032625042e-06,0.0017187398625537,-1.6141464584507048e-05,0.1102785021066665,-9.730002403259276,-0.2186909466981887
1.836801290512085,9.72897032625042e-06,-2.658932498889044e-05,-1.6141464584507048e-05,0.0904119163751602,-9.71034812927246,-0.2187178581953048
1.8418047428131104,9.72897032625042e-06,0.0034640692174434,0.0017291877884417,0.1098377257585525,-9.731454849243164,-0.2586821019649505
1.8468084335327148,-0.0017356002936139,-2.658932498889044e-05,0.0052198460325598,0.1100058704614639,-9.769980430603027,-0.2194903045892715
1.8518118858337402,9.72897032625042e-06,0.0017187398625537,-1.6141464584507048e-05,0.1104148179292678,-9.710013389587402,-0.2182912677526474
1.8568150997161865,9.72897032625042e-06,0.0017187398625537,-1.6141464584507048e-05,0.0907163769006729,-9.72888469696045,-0.1791263818740844
1.861818552017212,-0.003480929415673,-2.658932498889044e-05,-1.6141464584507048e-05,0.0906323045492172,-9.709622383117676,-0.1987222731113433
1.8668220043182373,9.72897032625042e-06,-2.658932498889044e-05,0.0034745170269161,0.0899711400270462,-9.711800575256348,-0.2587090134620666
1.871826410293579,9.72897032625042e-06,0.0017187398625537,-1.6141464584507048e-05,0.0906323045492172,-9.709622383117676,-0.1987222731113433
1.876828908920288,-0.003480929415673,-2.658932498889044e-05,-1.6141464584507048e-05,0.0902756005525589,-9.730337142944336,-0.2191175371408462
1.8818333148956299,9.72897032625042e-06,0.0017187398625537,-1.6141464584507048e-05,0.1107715219259262,-9.689298629760742,-0.1978960335254669
1.8868367671966553,-0.0017356002936139,0.0017187398625537,0.0034745170269161,0.1106874495744705,-9.670035362243652,-0.2174919247627258
1.8918399810791016,9.72897032625042e-06,-2.658932498889044e-05,-1.6141464584507048e-05,0.1104148179292678,-9.710013389587402,-0.2182912677526474
1.896843433380127,9.72897032625042e-06,0.0017187398625537,-1.6141464584507048e-05,0.0900552123785018,-9.73106288909912,-0.2391131222248077
1.9018468856811523,-0.0017356002936139,-2.658932498889044e-05,-1.6141464584507048e-05,0.0905482321977615,-9.690359115600586,-0.2183181941509246
1.9068503379821777,9.72897032625042e-06,0.0017187398625537,-1.6141464584507048e-05,0.0901074558496475,-9.691811561584473,-0.2583093643188476
1.9118540287017822,0.0035003875382244,0.0034640692174434,0.0034745170269161,0.0906323045492172,-9.709622383117676,-0.1987222731113433
1.9168570041656494,-0.0052262586541473,0.0034640692174434,-1.6141464584507048e-05,0.0904959887266159,-9.72961139678955,-0.1991219520568847
1.9218604564666748,9.72897032625042e-06,0.0034640692174434,-1.6141464584507048e-05,0.0903278440237045,-9.691084861755373,-0.2383137792348861
1.926863431930542,-0.003480929415673,-2.658932498889044e-05,-1.6141464584507048e-05,0.0700522884726524,-9.731398582458496,-0.2395397126674652
1.9318671226501465,-0.0017356002936139,-2.658932498889044e-05,-1.6141464584507048e-05,0.0504060834646225,-9.711018562316896,-0.2195710390806198
1.9368703365325928,9.72897032625042e-06,-2.658932498889044e-05,-0.0017614706885069,0.1106874495744705,-9.670035362243652,-0.2174919247627258
1.9418747425079346,-0.003480929415673,-2.658932498889044e-05,-1.6141464584507048e-05,0.0704930648207664,-9.729947090148926,-0.1995485424995422
1.9468779563903809,9.72897032625042e-06,0.0034640692174434,-1.6141464584507048e-05,0.0704930648207664,-9.729947090148926,-0.1995485424995422
1.9518816471099854,9.72897032625042e-06,0.0069547276943922,0.0052198460325598,0.0703567564487457,-9.7499361038208,-0.1999482214450836
1.9568846225738525,-0.003480929415673,0.0052093984559178,-1.6141464584507048e-05,0.070545308291912,-9.69069480895996,-0.2187447845935821
1.9618878364562988,-0.0017356002936139,-2.658932498889044e-05,0.0017291877884417,0.0904641598463058,-9.671095848083496,-0.2379141002893448
1.9668910503387451,9.72897032625042e-06,0.0017187398625537,-1.6141464584507048e-05,0.1101103574037551,-9.691476821899414,-0.2578827738761902
1.9718945026397705,9.72897032625042e-06,0.0017187398625537,0.0052198460325598,0.1106352061033248,-9.709287643432615,-0.1982956826686859
1.9768977165222168,9.72897032625042e-06,0.0069547276943922,-1.6141464584507048e-05,0.0702726766467094,-9.730672836303713,-0.2195441275835037
1.981900930404663,9.72897032625042e-06,-0.0017719186143949,0.0017291877884417,0.0901392847299575,-9.750326156616213,-0.2195172160863876
1.9869043827056885,9.72897032625042e-06,0.0034640692174434,0.0034745170269161,0.1100581139326095,-9.730728149414062,-0.2386865317821502
1.9919073581695557,-0.0017356002936139,0.0017187398625537,-1.6141464584507048e-05,0.0906323045492172,-9.709622383117676,-0.1987222731113433
1.996910572052002,9.72897032625042e-06,-2.658932498889044e-05,-1.6141464584507048e-05,0.1105511337518692,-9.690024375915527,-0.2178916037082672
2.0019137859344482,-0.003480929415673,0.0017187398625537,-1.6141464584507048e-05,0.0907686203718185,-9.6896333694458,-0.1983226239681244
2.0069169998168945,9.72897032625042e-06,-2.658932498889044e-05,-1.6141464584507048e-05,0.0699682161211967,-9.712136268615724,-0.2591356039047241
2.0119211673736572,0.0017550581833347,0.0017187398625537,-1.6141464584507048e-05,0.1102785021066665,-9.730002403259276,-0.2186909466981887
2.0169243812561035,9.72897032625042e-06,0.0017187398625537,0.0017291877884417,0.0905482321977615,-9.690359115600586,-0.2183181941509246
2.02192759513855,9.72897032625042e-06,0.0017187398625537,0.0052198460325598,0.1101944297552108,-9.710739135742188,-0.2382868528366089
2.026930570602417,9.72897032625042e-06,-2.658932498889044e-05,-1.6141464584507048e-05,0.1109078377485275,-9.669309616088867,-0.1974963545799255
2.0319337844848633,9.72897032625042e-06,0.0034640692174434,-1.6141464584507048e-05,0.1101421862840652,-9.749991416931152,-0.2190906256437301
2.0369369983673096,9.72897032625042e-06,0.0017187398625537,-1.6141464584507048e-05,0.0904959887266159,-9.72961139678955,-0.1991219520568847
2.041940450668335,9.72897032625042e-06,0.0034640692174434,-1.6141464584507048e-05,0.070765696465969,-9.689969062805176,-0.1987492144107818
2.046943426132202,-0.0017356002936139,-2.658932498889044e-05,-1.6141464584507048e-05,0.0906323045492172,-9.709622383117676,-0.1987222731113433
2.0519466400146484,9.72897032625042e-06,-2.658932498889044e-05,0.0017291877884417,0.1105511337518692,-9.690024375915527,-0.2178916037082672
2.0569493770599365,9.72897032625042e-06,0.0017187398625537,-1.6141464584507048e-05,0.0904641598463058,-9.671095848083496,-0.2379141002893448
2.061952829360962,-0.0017356002936139,0.0034640692174434,-1.6141464584507048e-05,0.1107715219259262,-9.689298629760742,-0.1978960335254669
2.066956043243408,9.72897032625042e-06,0.0069547276943922,0.0034745170269161,0.0899188965559005,-9.751051902770996,-0.2395128011703491
2.0719590187072754,-0.003480929415673,-2.658932498889044e-05,-0.0017614706885069,0.0706293806433677,-9.70995807647705,-0.1991488635540008
2.0769619941711426,9.72897032625042e-06,0.0052093984559178,-1.6141464584507048e-05,0.1301973313093185,-9.710404396057127,-0.2378602623939514
2.0819661617279053,-0.0017356002936139,-2.658932498889044e-05,-1.6141464584507048e-05,0.0906845480203628,-9.670370101928713,-0.2179185152053833
2.0869688987731934,9.72897032625042e-06,-2.658932498889044e-05,0.0034745170269161,0.0704089924693107,-9.710683822631836,-0.2191444486379623
2.0919721126556396,-0.0017356002936139,-2.658932498889044e-05,-1.6141464584507048e-05,0.0903596729040145,-9.749600410461426,-0.1995216310024261
2.096975088119507,9.72897032625042e-06,0.0017187398625537,-1.6141464584507048e-05,0.0907163769006729,-9.72888469696045,-0.1791263818740844
2.101978302001953,9.72897032625042e-06,0.0017187398625537,0.0017291877884417,0.0906323045492172,-9.709622383117676,-0.1987222731113433
2.106981039047241,-0.003480929415673,0.0017187398625537,0.0017291877884417,0.0904119163751602,-9.71034812927246,-0.2187178581953048
2.1119844913482666,9.72897032625042e-06,0.0017187398625537,-1.6141464584507048e-05,0.0902756005525589,-9.730337142944336,-0.2191175371408462
2.1169872283935547,9.72897032625042e-06,0.0017187398625537,0.0017291877884417,0.0904119163751602,-9.71034812927246,-0.2187178581953048
2.121990442276001,-0.003480929415673,-2.658932498889044e-05,-1.6141464584507048e-05,0.0902756005525589,-9.730337142944336,-0.2191175371408462
2.126993179321289,9.72897032625042e-06,0.0017187398625537,0.0017291877884417,0.0702726766467094,-9.730672836303713,-0.2195441275835037
2.1319963932037354,9.72897032625042e-06,-2.658932498889044e-05,-1.6141464584507048e-05,0.0905482321977615,-9.690359115600586,-0.2183181941509246
2.1369993686676025,9.72897032625042e-06,0.0017187398625537,0.0034745170269161,0.0906323045492172,-9.709622383117676,-0.1987222731113433
2.142003059387207,9.72897032625042e-06,0.0034640692174434,0.0052198460325598,0.1103307455778122,-9.690750122070312,-0.2378871887922287
2.147005081176758,9.72897032625042e-06,0.0052093984559178,-0.0035067999269813,0.0704930648207664,-9.729947090148926,-0.1995485424995422
2.1520090103149414,-0.0017356002936139,0.0017187398625537,-1.6141464584507048e-05,0.1101944297552108,-9.710739135742188,-0.2382868528366089
2.1570119857788086,9.72897032625042e-06,-0.0017719186143949,-1.6141464584507048e-05,0.0905482321977615,-9.690359115600586,-0.2183181941509246
2.162014961242676,9.72897032625042e-06,-2.658932498889044e-05,0.0034745170269161,0.0503220111131668,-9.691755294799805,-0.2391669601202011
2.167017936706543,-0.003480929415673,0.0017187398625537,-1.6141464584507048e-05,0.0903278440237045,-9.691084861755373,-0.2383137792348861
2.172020673751831,9.72897032625042e-06,-2.658932498889044e-05,-1.6141464584507048e-05,0.0904959887266159,-9.72961139678955,-0.1991219520568847
2.1770236492156982,-0.0017356002936139,-2.658932498889044e-05,-1.6141464584507048e-05,0.070765696465969,-9.689969062805176,-0.1987492144107818
2.1820266246795654,-0.0052262586541473,-2.658932498889044e-05,-1.6141464584507048e-05,0.0904119163751602,-9.71034812927246,-0.2187178581953048
2.1870296001434326,9.72897032625042e-06,-2.658932498889044e-05,-1.6141464584507048e-05,0.0906323045492172,-9.709622383117676,-0.1987222731113433
2.1920323371887207,9.72897032625042e-06,0.0052093984559178,0.0034745170269161,0.0904119163751602,-9.71034812927246,-0.2187178581953048
2.197035074234009,-0.003480929415673,0.0017187398625537,-1.6141464584507048e-05,0.0704930648207664,-9.729947090148926,-0.1995485424995422
2.202038049697876,9.72897032625042e-06,-2.658932498889044e-05,-1.6141464584507048e-05,0.0902756005525589,-9.730337142944336,-0.2191175371408462
2.2070419788360596,9.72897032625042e-06,-2.658932498889044e-05,0.0017291877884417,0.0899711400270462,-9.711800575256348,-0.2587090134620666
2.2120437622070312,-0.003480929415673,0.0034640692174434,0.0017291877884417,0.0706293806433677,-9.70995807647705,-0.1991488635540008
2.217047691345215,9.72897032625042e-06,0.0017187398625537,-0.0035067999269813,0.0903278440237045,-9.691084861755373,-0.2383137792348861
2.222050428390503,9.72897032625042e-06,0.0034640692174434,-1.6141464584507048e-05,0.1104988902807235,-9.729276657104492,-0.1986953616142273
2.227053165435791,9.72897032625042e-06,0.0017187398625537,-1.6141464584507048e-05,0.0904119163751602,-9.71034812927246,-0.2187178581953048
2.232056140899658,9.72897032625042e-06,0.0017187398625537,0.0034745170269161,0.0902756005525589,-9.730337142944336,-0.2191175371408462
2.2370588779449463,9.72897032625042e-06,0.0017187398625537,0.0034745170269161,0.0901392847299575,-9.750326156616213,-0.2195172160863876
2.2420616149902344,-0.0017356002936139,-0.0017719186143949,0.0017291877884417,0.0706293806433677,-9.70995807647705,-0.1991488635540008
2.2470643520355225,9.72897032625042e-06,0.0052093984559178,-1.6141464584507048e-05,0.0901915282011032,-9.711073875427246,-0.2387134432792663
2.2520670890808105,-0.0017356002936139,0.0034640692174434,-0.0017614706885069,0.0900552123785018,-9.73106288909912,-0.2391131222248077
2.2570698261260986,9.72897032625042e-06,-2.658932498889044e-05,-1.6141464584507048e-05,0.1303654909133911,-9.748930931091309,-0.1986684501171112
2.262072801589966,-0.0017356002936139,0.0017187398625537,-1.6141464584507048e-05,0.0704612359404563,-9.671431541442873,-0.2383406907320022
2.2670764923095703,9.72897032625042e-06,0.0017187398625537,0.0017291877884417,0.0909890085458755,-9.6889066696167,-0.1783270239830017
2.272078037261963,9.72897032625042e-06,-2.658932498889044e-05,-1.6141464584507048e-05,0.0505423992872238,-9.69102954864502,-0.2191713750362396
2.2770817279815674,9.72897032625042e-06,-2.658932498889044e-05,-1.6141464584507048e-05,0.0904119163751602,-9.71034812927246,-0.2187178581953048
2.2820847034454346,-0.0017356002936139,0.0017187398625537,-1.6141464584507048e-05,0.0904119163751602,-9.71034812927246,-0.2187178581953048
2.2870874404907227,-0.003480929415673,-2.658932498889044e-05,-1.6141464584507048e-05,0.0900552123785018,-9.73106288909912,-0.2391131222248077
2.2920901775360107,-0.0017356002936139,-2.658932498889044e-05,0.0017291877884417,0.0905482321977615,-9.690359115600586,-0.2183181941509246
2.2970926761627197,9.72897032625042e-06,-2.658932498889044e-05,0.0017291877884417,0.0902756005525589,-9.730337142944336,-0.2191175371408462
2.302095651626587,-0.0017356002936139,0.0034640692174434,-1.6141464584507048e-05,0.070545308291912,-9.69069480895996,-0.2187447845935821
2.307098150253296,9.72897032625042e-06,0.0017187398625537,-1.6141464584507048e-05,0.0706293806433677,-9.70995807647705,-0.1991488635540008
2.312100887298584,9.72897032625042e-06,-2.658932498889044e-05,0.0017291877884417,0.0902756005525589,-9.730337142944336,-0.2191175371408462
2.317103624343872,9.72897032625042e-06,0.0034640692174434,-1.6141464584507048e-05,0.0702726766467094,-9.730672836303713,-0.2195441275835037
2.322105884552002,9.72897032625042e-06,0.0034640692174434,0.0017291877884417,0.1105511337518692,-9.690024375915527,-0.2178916037082672
2.32710862159729,-0.0017356002936139,-2.658932498889044e-05,0.0017291877884417,0.0905482321977615,-9.690359115600586,-0.2183181941509246
2.332111358642578,-0.0017356002936139,0.0034640692174434,0.0034745170269161,0.0905482321977615,-9.690359115600586,-0.2183181941509246
2.3371150493621826,9.72897032625042e-06,-2.658932498889044e-05,0.0017291877884417,0.0904959887266159,-9.72961139678955,-0.1991219520568847
2.3421177864074707,-0.0017356002936139,-2.658932498889044e-05,0.0017291877884417,0.0901074558496475,-9.691811561584473,-0.2583093643188476
2.3471200466156006,0.0017550581833347,0.0034640692174434,-1.6141464584507048e-05,0.0905800610780716,-9.748873710632324,-0.1795260608196258
2.3521227836608887,9.72897032625042e-06,-2.658932498889044e-05,-1.6141464584507048e-05,0.0901915282011032,-9.711073875427246,-0.2387134432792663
2.3571250438690186,-0.0017356002936139,0.0017187398625537,-1.6141464584507048e-05,0.0704612359404563,-9.671431541442873,-0.2383406907320022
2.3621280193328857,9.72897032625042e-06,0.0017187398625537,0.0034745170269161,0.0706293806433677,-9.70995807647705,-0.1991488635540008
2.3671305179595947,0.0017550581833347,-2.658932498889044e-05,0.0017291877884417,0.0902756005525589,-9.730337142944336,-0.2191175371408462
2.3721330165863037,9.72897032625042e-06,-2.658932498889044e-05,-1.6141464584507048e-05,0.0907686203718185,-9.6896333694458,-0.1983226239681244
2.3771355152130127,-0.003480929415673,-2.658932498889044e-05,0.0034745170269161,0.0909890085458755,-9.6889066696167,-0.1783270239830017
2.382138252258301,9.72897032625042e-06,0.0034640692174434,0.0034745170269161,0.0905482321977615,-9.690359115600586,-0.2183181941509246
2.3871405124664307,0.0017550581833347,-2.658932498889044e-05,0.0034745170269161,0.1104148179292678,-9.710013389587402,-0.2182912677526474
2.3921432495117188,-0.0017356002936139,0.0017187398625537,-1.6141464584507048e-05,0.0904119163751602,-9.71034812927246,-0.2187178581953048
2.397146701812744,9.72897032625042e-06,-2.658932498889044e-05,0.0017291877884417,0.0706293806433677,-9.70995807647705,-0.1991488635540008
2.4021482467651367,-0.0017356002936139,-2.658932498889044e-05,0.0017291877884417,0.0896985083818435,-9.751778602600098,-0.2595083713531494
2.407151937484741,9.72897032625042e-06,-2.658932498889044e-05,0.0034745170269161,0.0902756005525589,-9.730337142944336,-0.2191175371408462
2.41215443611145,9.72897032625042e-06,-2.658932498889044e-05,0.0017291877884417,0.0901074558496475,-9.691811561584473,-0.2583093643188476
2.41715669631958,-0.003480929415673,0.0034640692174434,0.0017291877884417,0.0901915282011032,-9.711073875427246,-0.2387134432792663
2.422159194946289,9.72897032625042e-06,-2.658932498889044e-05,-1.6141464584507048e-05,0.1102785021066665,-9.730002403259276,-0.2186909466981887
2.427161693572998,-0.003480929415673,0.0017187398625537,-1.6141464584507048e-05,0.0906323045492172,-9.709622383117676,-0.1987222731113433
2.432163953781128,-0.0017356002936139,0.0017187398625537,0.0034745170269161,0.0905482321977615,-9.690359115600586,-0.2183181941509246
2.437166452407837,9.72897032625042e-06,-2.658932498889044e-05,0.0034745170269161,0.1101944297552108,-9.710739135742188,-0.2382868528366089
2.442168951034546,-0.0017356002936139,0.0017187398625537,-1.6141464584507048e-05,0.0904119163751602,-9.71034812927246,-0.2187178581953048
2.447171449661255,9.72897032625042e-06,-2.658932498889044e-05,-1.6141464584507048e-05,0.0908526927232742,-9.708895683288574,-0.1787267029285431
2.4521737098693848,-0.003480929415673,0.0017187398625537,0.0034745170269161,0.1101944297552108,-9.710739135742188,-0.2382868528366089
2.457176446914673,-0.0017356002936139,-2.658932498889044e-05,0.0034745170269161,0.0704089924693107,-9.710683822631836,-0.2191444486379623
2.46218204498291,0.0035003875382244,0.0017187398625537,0.0034745170269161,0.0908526927232742,-9.708895683288574,-0.1787267029285431
2.467189073562622,9.72897032625042e-06,0.0034640692174434,-1.6141464584507048e-05,0.1304177194833755,-9.709678649902344,-0.2178646773099899
2.472193956375122,9.72897032625042e-06,0.0017187398625537,0.0017291877884417,0.0904119163751602,-9.71034812927246,-0.2187178581953048
2.477200746536255,-0.003480929415673,0.0034640692174434,-1.6141464584507048e-05,0.0704089924693107,-9.710683822631836,-0.2191444486379623
2.4822065830230713,-0.0017356002936139,0.0034640692174434,-1.6141464584507048e-05,0.0905482321977615,-9.690359115600586,-0.2183181941509246
2.4872121810913086,0.0017550581833347,-2.658932498889044e-05,0.0034745170269161,0.0907686203718185,-9.6896333694458,-0.1983226239681244
2.492218017578125,9.72897032625042e-06,-2.658932498889044e-05,0.0034745170269161,0.0907163769006729,-9.72888469696045,-0.1791263818740844
2.4972238540649414,-0.003480929415673,0.0017187398625537,-1.6141464584507048e-05,0.0905482321977615,-9.690359115600586,-0.2183181941509246
2.502229690551758,9.72897032625042e-06,-2.658932498889044e-05,-1.6141464584507048e-05,0.0909890085458755,-9.6889066696167,-0.1783270239830017
2.507235527038574,9.72897032625042e-06,-2.658932498889044e-05,0.0017291877884417,0.1101944297552108,-9.710739135742188,-0.2382868528366089
2.5122411251068115,0.0035003875382244,0.0017187398625537,-1.6141464584507048e-05,0.0704089924693107,-9.710683822631836,-0.2191444486379623
2.517246961593628,-0.0017356002936139,0.0034640692174434,-1.6141464584507048e-05,0.0905482321977615,-9.690359115600586,-0.2183181941509246
2.5222530364990234,9.72897032625042e-06,0.0017187398625537,0.0017291877884417,0.0904119163751602,-9.71034812927246,-0.2187178581953048
2.52725887298584,-0.0017356002936139,0.0069547276943922,-1.6141464584507048e-05,0.1097536534070968,-9.712191581726074,-0.2782779932022095
2.532264232635498,9.72897032625042e-06,-2.658932498889044e-05,0.0017291877884417,0.1100581139326095,-9.730728149414062,-0.2386865317821502
2.537271022796631,-0.0017356002936139,0.0017187398625537,-1.6141464584507048e-05,0.0908526927232742,-9.708895683288574,-0.1787267029285431
2.5422768592834473,-0.0017356002936139,0.0034640692174434,0.0017291877884417,0.0902756005525589,-9.730337142944336,-0.2191175371408462
2.5472826957702637,-0.003480929415673,0.0017187398625537,-1.6141464584507048e-05,0.1302814036607742,-9.72966766357422,-0.2182643562555313
2.55228853225708,9.72897032625042e-06,0.0017187398625537,0.0034745170269161,0.0909049361944198,-9.669644355773926,-0.197922945022583
2.5572941303253174,9.72897032625042e-06,0.0017187398625537,-0.0017614706885069,0.0904119163751602,-9.71034812927246,-0.2187178581953048
2.562299966812134,9.72897032625042e-06,-2.658932498889044e-05,0.0017291877884417,0.0707134529948234,-9.729220390319824,-0.1795529723167419
2.567305564880371,-0.0017356002936139,-2.658932498889044e-05,-1.6141464584507048e-05,0.1302814036607742,-9.72966766357422,-0.2182643562555313
2.5723116397857666,-0.0017356002936139,0.0034640692174434,0.0034745170269161,0.0901915282011032,-9.711073875427246,-0.2387134432792663
2.577317237854004,9.72897032625042e-06,-2.658932498889044e-05,-1.6141464584507048e-05,0.0712587162852287,-9.649264335632324,-0.1779542565345764
2.5823230743408203,9.72897032625042e-06,-2.658932498889044e-05,-1.6141464584507048e-05,0.0907686203718185,-9.6896333694458,-0.1983226239681244
2.5873286724090576,9.72897032625042e-06,0.0017187398625537,-1.6141464584507048e-05,0.0701886042952537,-9.71140956878662,-0.2391400337219238
2.592334270477295,-0.0017356002936139,-2.658932498889044e-05,-1.6141464584507048e-05,0.1098377257585525,-9.731454849243164,-0.2586821019649505
2.5973401069641113,-0.0017356002936139,0.0034640692174434,-1.6141464584507048e-05,0.0904959887266159,-9.72961139678955,-0.1991219520568847
2.6023457050323486,9.72897032625042e-06,0.0017187398625537,-0.0017614706885069,0.1106874495744705,-9.670035362243652,-0.2174919247627258
2.6073522567749023,9.72897032625042e-06,-2.658932498889044e-05,-1.6141464584507048e-05,0.0909890085458755,-9.6889066696167,-0.1783270239830017
2.6123580932617188,-0.003480929415673,-2.658932498889044e-05,0.0017291877884417,0.0704930648207664,-9.729947090148926,-0.1995485424995422
2.617363691329956,9.72897032625042e-06,-2.658932498889044e-05,-1.6141464584507048e-05,0.0904119163751602,-9.71034812927246,-0.2187178581953048
2.6223690509796143,0.0017550581833347,0.0034640692174434,0.0034745170269161,0.0904119163751602,-9.71034812927246,-0.2187178581953048
2.6273751258850098,9.72897032625042e-06,0.0017187398625537,0.0017291877884417,0.0504060834646225,-9.711018562316896,-0.2195710390806198
2.632380962371826,9.72897032625042e-06,-0.0017719186143949,0.0034745170269161,0.1106352061033248,-9.709287643432615,-0.1982956826686859
2.6373865604400635,-0.003480929415673,0.0017187398625537,0.0052198460325598,0.1304177194833755,-9.709678649902344,-0.2178646773099899
2.642392158508301,9.72897032625042e-06,0.0017187398625537,0.0017291877884417,0.0901915282011032,-9.711073875427246,-0.2387134432792663
2.647397756576538,9.72897032625042e-06,0.0017187398625537,0.0017291877884417,0.0905482321977615,-9.690359115600586,-0.2183181941509246
2.6524033546447754,-0.0017356002936139,-2.658932498889044e-05,-1.6141464584507048e-05,0.0901915282011032,-9.711073875427246,-0.2387134432792663
2.6574089527130127,9.72897032625042e-06,0.0052093984559178,-1.6141464584507048e-05,0.1104148179292678,-9.710013389587402,-0.2182912677526474
2.6624157428741455,-0.0017356002936139,0.0034640692174434,-1.6141464584507048e-05,0.0907686203718185,-9.6896333694458,-0.1983226239681244
2.667421340942383,-0.003480929415673,-2.658932498889044e-05,-1.6141464584507048e-05,0.0908208638429641,-9.650381088256836,-0.2175188362598419
2.67242693901062,9.72897032625042e-06,0.0034640692174434,0.0034745170269161,0.1304177194833755,-9.709678649902344,-0.2178646773099899
2.6774325370788574,-0.0017356002936139,-2.658932498889044e-05,-1.6141464584507048e-05,0.1303336471319198,-9.690415382385254,-0.2374605983495712
2.6824381351470947,9.72897032625042e-06,-2.658932498889044e-05,0.0017291877884417,0.0904959887266159,-9.72961139678955,-0.1991219520568847
2.687443733215332,9.72897032625042e-06,0.0034640692174434,-1.6141464584507048e-05,0.0899188965559005,-9.751051902770996,-0.2395128011703491
2.6924495697021484,-0.0017356002936139,0.0052093984559178,-1.6141464584507048e-05,0.1106352061033248,-9.709287643432615,-0.1982956826686859
2.6974551677703857,9.72897032625042e-06,0.0052093984559178,-1.6141464584507048e-05,0.1105511337518692,-9.690024375915527,-0.2178916037082672
2.702460527420044,-0.0017356002936139,-2.658932498889044e-05,-1.6141464584507048e-05,0.0899711400270462,-9.711800575256348,-0.2587090134620666
2.7074661254882812,9.72897032625042e-06,0.0017187398625537,0.0034745170269161,0.0903596729040145,-9.749600410461426,-0.1995216310024261
2.7124717235565186,-0.0017356002936139,0.0052093984559178,0.0017291877884417,0.0700522884726524,-9.731398582458496,-0.2395397126674652
2.717477321624756,0.0017550581833347,0.0052093984559178,-1.6141464584507048e-05,0.0905482321977615,-9.690359115600586,-0.2183181941509246
2.722482919692993,-0.003480929415673,-2.658932498889044e-05,-0.0017614706885069,0.0899711400270462,-9.711800575256348,-0.2587090134620666
2.727489471435547,9.72897032625042e-06,0.0052093984559178,0.0017291877884417,0.070545308291912,-9.69069480895996,-0.2187447845935821
2.732494831085205,9.72897032625042e-06,-0.0017719186143949,-1.6141464584507048e-05,0.0501334592700004,-9.750996589660645,-0.2203703969717025
2.7375004291534424,-0.0017356002936139,0.0017187398625537,0.0017291877884417,0.0904119163751602,-9.71034812927246,-0.2187178581953048
2.7425060272216797,-0.0017356002936139,0.0017187398625537,0.0034745170269161,0.0704089924693107,-9.710683822631836,-0.2191444486379623
2.747511625289917,-0.0017356002936139,0.0017187398625537,-1.6141464584507048e-05,0.0903278440237045,-9.691084861755373,-0.2383137792348861
2.752516984939575,9.72897032625042e-06,0.0017187398625537,0.0017291877884417,0.1103307455778122,-9.690750122070312,-0.2378871887922287
2.7575228214263916,-0.003480929415673,0.0034640692174434,-1.6141464584507048e-05,0.0909049361944198,-9.669644355773926,-0.197922945022583
2.76252818107605,9.72897032625042e-06,0.0017187398625537,-1.6141464584507048e-05,0.0704930648207664,-9.729947090148926,-0.1995485424995422
2.767533779144287,9.72897032625042e-06,0.0017187398625537,0.0034745170269161,0.0902756005525589,-9.730337142944336,-0.2191175371408462
2.7725393772125244,9.72897032625042e-06,-2.658932498889044e-05,-1.6141464584507048e-05,0.0901074558496475,-9.691811561584473,-0.2583093643188476
2.7775447368621826,9.72897032625042e-06,0.0017187398625537,0.0052198460325598,0.0706816241145134,-9.670705795288086,-0.2183451056480407
2.78255033493042,9.72897032625042e-06,-2.658932498889044e-05,0.0034745170269161,0.1106352061033248,-9.709287643432615,-0.1982956826686859
2.787555694580078,-0.0017356002936139,0.0017187398625537,-1.6141464584507048e-05,0.0904119163751602,-9.71034812927246,-0.2187178581953048
2.7925612926483154,9.72897032625042e-06,0.0017187398625537,0.0052198460325598,0.0901392847299575,-9.750326156616213,-0.2195172160863876
2.7975666522979736,-0.003480929415673,-2.658932498889044e-05,-1.6141464584507048e-05,0.0901915282011032,-9.711073875427246,-0.2387134432792663
2.8025732040405273,9.72897032625042e-06,-2.658932498889044e-05,-1.6141464584507048e-05,0.0904119163751602,-9.71034812927246,-0.2187178581953048
2.8075785636901855,-0.003480929415673,-0.0017719186143949,0.0017291877884417,0.0905482321977615,-9.690359115600586,-0.2183181941509246
2.812584161758423,9.72897032625042e-06,-2.658932498889044e-05,-1.6141464584507048e-05,0.1101421862840652,-9.749991416931152,-0.2190906256437301
2.817589521408081,9.72897032625042e-06,0.0034640692174434,-1.6141464584507048e-05,0.0903596729040145,-9.749600410461426,-0.1995216310024261
2.8225948810577393,-0.0017356002936139,-2.658932498889044e-05,-1.6141464584507048e-05,0.0904959887266159,-9.72961139678955,-0.1991219520568847
2.8276002407073975,9.72897032625042e-06,0.0034640692174434,-1.6141464584507048e-05,0.0907686203718185,-9.6896333694458,-0.1983226239681244
2.8326058387756348,-0.003480929415673,0.0034640692174434,-1.6141464584507048e-05,0.1099740415811538,-9.711465835571287,-0.2582824230194092
2.837611436843872,-0.0017356002936139,0.0017187398625537,0.0017291877884417,0.0698319002985954,-9.732125282287598,-0.2595352828502655
2.8426170349121094,9.72897032625042e-06,0.0017187398625537,0.0017291877884417,0.070545308291912,-9.69069480895996,-0.2187447845935821
2.8476223945617676,9.72897032625042e-06,-2.658932498889044e-05,-1.6141464584507048e-05,0.0906323045492172,-9.709622383117676,-0.1987222731113433
2.852628707885742,-0.003480929415673,-2.658932498889044e-05,-1.6141464584507048e-05,0.0699682161211967,-9.712136268615724,-0.2591356039047241
2.857633113861084,9.72897032625042e-06,-2.658932498889044e-05,0.0034745170269161,0.1106352061033248,-9.709287643432615,-0.1982956826686859
2.862638235092163,-0.0017356002936139,0.0034640692174434,-1.6141464584507048e-05,0.0906323045492172,-9.709622383117676,-0.1987222731113433
2.867645025253296,9.72897032625042e-06,-2.658932498889044e-05,-0.0017614706885069,0.0901915282011032,-9.711073875427246,-0.2387134432792663
2.872650384902954,-0.003480929415673,0.0017187398625537,-1.6141464584507048e-05,0.1101944297552108,-9.710739135742188,-0.2382868528366089
2.8776557445526123,-0.003480929415673,-2.658932498889044e-05,0.0017291877884417,0.1096173375844955,-9.73218059539795,-0.2786777019500732
2.8826611042022705,0.0017550581833347,-2.658932498889044e-05,0.0017291877884417,0.0701363682746887,-9.750661849975586,-0.2199438065290451
2.8876662254333496,9.72897032625042e-06,-2.658932498889044e-05,-1.6141464584507048e-05,0.0902756005525589,-9.730337142944336,-0.2191175371408462
2.892671823501587,9.72897032625042e-06,-2.658932498889044e-05,-1.6141464584507048e-05,0.0904959887266159,-9.72961139678955,-0.1991219520568847
2.897677183151245,9.72897032625042e-06,-2.658932498889044e-05,-1.6141464584507048e-05,0.1106352061033248,-9.709287643432615,-0.1982956826686859
2.9026825428009033,9.72897032625042e-06,0.0034640692174434,-1.6141464584507048e-05,0.070545308291912,-9.69069480895996,-0.2187447845935821
2.9076879024505615,-0.003480929415673,-2.658932498889044e-05,-1.6141464584507048e-05,0.1105511337518692,-9.690024375915527,-0.2178916037082672
2.9126930236816406,9.72897032625042e-06,0.0034640692174434,0.0017291877884417,0.1104148179292678,-9.710013389587402,-0.2182912677526474
2.917698621749878,-0.0017356002936139,0.0034640692174434,-1.6141464584507048e-05,0.0903278440237045,-9.691084861755373,-0.2383137792348861
2.9227051734924316,-0.0017356002936139,0.0017187398625537,0.0034745170269161,0.1115690022706985,-9.66713047027588,-0.1375095695257187
2.92771053314209,9.72897032625042e-06,-2.658932498889044e-05,-1.6141464584507048e-05,0.0704089924693107,-9.710683822631836,-0.2191444486379623
2.932715892791748,9.72897032625042e-06,-2.658932498889044e-05,0.0017291877884417,0.1100581139326095,-9.730728149414062,-0.2386865317821502
2.9377212524414062,-0.0017356002936139,0.0034640692174434,0.0017291877884417,0.0704089924693107,-9.710683822631836,-0.2191444486379623
2.9427263736724854,-0.003480929415673,-2.658932498889044e-05,-1.6141464584507048e-05,0.070765696465969,-9.689969062805176,-0.1987492144107818
2.9477317333221436,9.72897032625042e-06,0.0017187398625537,-1.6141464584507048e-05,0.1105511337518692,-9.690024375915527,-0.2178916037082672
2.9527370929718018,9.72897032625042e-06,-2.658932498889044e-05,-1.6141464584507048e-05,0.0900552123785018,-9.73106288909912,-0.2391131222248077
2.95774245262146,-0.0017356002936139,0.0017187398625537,-1.6141464584507048e-05,0.0907686203718185,-9.6896333694458,-0.1983226239681244
2.962747573852539,9.72897032625042e-06,0.0017187398625537,0.0017291877884417,0.0706293806433677,-9.70995807647705,-0.1991488635540008
2.9677529335021973,9.72897032625042e-06,-2.658932498889044e-05,-1.6141464584507048e-05,0.0901392847299575,-9.750326156616213,-0.2195172160863876
2.9727582931518555,9.72897032625042e-06,0.0034640692174434,-1.6141464584507048e-05,0.0702726766467094,-9.730672836303713,-0.2195441275835037
2.977764844894409,9.72897032625042e-06,-2.658932498889044e-05,0.0034745170269161,0.0907686203718185,-9.6896333694458,-0.1983226239681244
2.9827687740325928,9.72897032625042e-06,0.0052093984559178,0.0017291877884417,0.0701886042952537,-9.71140956878662,-0.2391400337219238
2.987774133682251,9.72897032625042e-06,-2.658932498889044e-05,-1.6141464584507048e-05,0.0698319002985954,-9.732125282287598,-0.2595352828502655
2.9927804470062256,9.72897032625042e-06,0.0034640692174434,-1.6141464584507048e-05,0.1104988902807235,-9.729276657104492,-0.1986953616142273
2.9977855682373047,9.72897032625042e-06,-2.658932498889044e-05,0.0034745170269161,0.0905482321977615,-9.690359115600586,-0.2183181941509246
3.002790927886963,9.72897032625042e-06,-2.658932498889044e-05,-1.6141464584507048e-05,0.0904119163751602,-9.71034812927246,-0.2187178581953048
3.007796049118042,-0.0017356002936139,0.0052093984559178,-1.6141464584507048e-05,0.0507105439901351,-9.729555130004885,-0.1799795627593994
3.0128016471862793,9.72897032625042e-06,-2.658932498889044e-05,0.0017291877884417,0.0702726766467094,-9.730672836303713,-0.2195441275835037
3.0178065299987793,9.72897032625042e-06,-2.658932498889044e-05,-1.6141464584507048e-05,0.1100581139326095,-9.730728149414062,-0.2386865317821502
3.0228121280670166,9.72897032625042e-06,-2.658932498889044e-05,0.0017291877884417,0.0899711400270462,-9.711800575256348,-0.2587090134620666
3.0278172492980957,-0.0017356002936139,0.0034640692174434,0.0017291877884417,0.0904119163751602,-9.71034812927246,-0.2187178581953048
3.032822370529175,-0.0017356002936139,0.0017187398625537,0.0034745170269161,0.0906845480203628,-9.670370101928713,-0.2179185152053833
3.037827730178833,-0.003480929415673,0.0034640692174434,-1.6141464584507048e-05,0.1097536534070968,-9.712191581726074,-0.2782779932022095
3.042832851409912,9.72897032625042e-06,-2.658932498889044e-05,0.0017291877884417,0.0704089924693107,-9.710683822631836,-0.2191444486379623
3.0478384494781494,-0.0017356002936139,-2.658932498889044e-05,-1.6141464584507048e-05,0.0706293806433677,-9.70995807647705,-0.1991488635540008
3.0528433322906494,-0.0017356002936139,-2.658932498889044e-05,0.0017291877884417,0.0903278440237045,-9.691084861755373,-0.2383137792348861
3.057849645614624,-0.0017356002936139,0.0034640692174434,-1.6141464584507048e-05,0.1101944297552108,-9.710739135742188,-0.2382868528366089
3.062854766845703,9.72897032625042e-06,-2.658932498889044e-05,0.0017291877884417,0.0906845480203628,-9.670370101928713,-0.2179185152053833
3.0678598880767822,-0.003480929415673,-2.658932498889044e-05,-1.6141464584507048e-05,0.0905482321977615,-9.690359115600586,-0.2183181941509246
3.0728650093078613,9.72897032625042e-06,-2.658932498889044e-05,-0.0017614706885069,0.0704930648207664,-9.729947090148926,-0.1995485424995422
3.0778701305389404,-0.0052262586541473,0.0034640692174434,-1.6141464584507048e-05,0.1104988902807235,-9.729276657104492,-0.1986953616142273
3.0828752517700195,0.0017550581833347,0.0034640692174434,0.0017291877884417,0.0912093967199325,-9.688180923461914,-0.158331423997879
3.087880849838257,9.72897032625042e-06,0.0034640692174434,0.0017291877884417,0.0905482321977615,-9.690359115600586,-0.2183181941509246
3.092885732650757,9.72897032625042e-06,0.0017187398625537,-1.6141464584507048e-05,0.1104988902807235,-9.729276657104492,-0.1986953616142273
3.097890853881836,9.72897032625042e-06,0.0017187398625537,0.0017291877884417,0.0506264716386795,-9.71029281616211,-0.1995754539966583
3.102895975112915,9.72897032625042e-06,0.0034640692174434,0.0034745170269161,0.0907686203718185,-9.6896333694458,-0.1983226239681244
3.1079020500183105,9.72897032625042e-06,0.0034640692174434,0.0017291877884417,0.0904119163751602,-9.71034812927246,-0.2187178581953048
3.1129071712493896,9.72897032625042e-06,-2.658932498889044e-05,-0.0017614706885069,0.0907686203718185,-9.6896333694458,-0.1983226239681244
3.1179113388061523,9.72897032625042e-06,-2.658932498889044e-05,-1.6141464584507048e-05,0.1108555942773819,-9.708560943603516,-0.1783001124858856
3.122917652130127,-0.0017356002936139,0.0034640692174434,-1.6141464584507048e-05,0.0904119163751602,-9.71034812927246,-0.2187178581953048
3.127922534942627,-0.0017356002936139,-2.658932498889044e-05,-1.6141464584507048e-05,0.0906323045492172,-9.709622383117676,-0.1987222731113433
3.132927656173706,-0.0017356002936139,-2.658932498889044e-05,-1.6141464584507048e-05,0.0704612359404563,-9.671431541442873,-0.2383406907320022
3.137932777404785,0.0035003875382244,-2.658932498889044e-05,-1.6141464584507048e-05,0.070545308291912,-9.69069480895996,-0.2187447845935821
3.1429378986358643,-0.0017356002936139,0.0034640692174434,0.0017291877884417,0.0704930648207664,-9.729947090148926,-0.1995485424995422
3.1479430198669434,9.72897032625042e-06,-2.658932498889044e-05,0.0017291877884417,0.0706293806433677,-9.70995807647705,-0.1991488635540008
3.1529481410980225,-0.003480929415673,-2.658932498889044e-05,0.0017291877884417,0.0703567564487457,-9.7499361038208,-0.1999482214450836
3.1579530239105225,-0.0017356002936139,0.0017187398625537,-0.0017614706885069,0.0901915282011032,-9.711073875427246,-0.2387134432792663
3.1629583835601807,-0.0017356002936139,0.0052093984559178,-1.6141464584507048e-05,0.0905482321977615,-9.690359115600586,-0.2183181941509246
3.1679630279541016,9.72897032625042e-06,-2.658932498889044e-05,-1.6141464584507048e-05,0.1103307455778122,-9.690750122070312,-0.2378871887922287
3.1729683876037598,9.72897032625042e-06,0.0017187398625537,-1.6141464584507048e-05,0.0907686203718185,-9.6896333694458,-0.1983226239681244
3.1779747009277344,9.72897032625042e-06,0.0052093984559178,-1.6141464584507048e-05,0.0902756005525589,-9.730337142944336,-0.2191175371408462
3.1829798221588135,9.72897032625042e-06,-2.658932498889044e-05,-0.0017614706885069,0.0900552123785018,-9.73106288909912,-0.2391131222248077
3.187983751296997,-0.003480929415673,-2.658932498889044e-05,0.0034745170269161,0.0706293806433677,-9.70995807647705,-0.1991488635540008
3.1929898262023926,-0.003480929415673,0.0017187398625537,0.0034745170269161,0.0909049361944198,-9.669644355773926,-0.197922945022583
3.1979949474334717,-0.0052262586541473,-2.658932498889044e-05,-1.6141464584507048e-05,0.0709020122885704,-9.6699800491333,-0.1983495354652404
3.2029998302459717,9.72897032625042e-06,0.0017187398625537,-1.6141464584507048e-05,0.1107192784547805,-9.72854995727539,-0.178699791431427
3.208004951477051,9.72897032625042e-06,-2.658932498889044e-05,0.0034745170269161,0.0696955919265747,-9.752114295959473,-0.2599349617958069
3.213009834289551,9.72897032625042e-06,-2.658932498889044e-05,0.0034745170269161,0.0904119163751602,-9.71034812927246,-0.2187178581953048
3.21801495552063,9.72897032625042e-06,-2.658932498889044e-05,-1.6141464584507048e-05,0.0904959887266159,-9.72961139678955,-0.1991219520568847
3.22301983833313,-0.0017356002936139,0.0034640692174434,0.0017291877884417,0.0906323045492172,-9.709622383117676,-0.1987222731113433
3.228024959564209,9.72897032625042e-06,-2.658932498889044e-05,-1.6141464584507048e-05,0.1106352061033248,-9.709287643432615,-0.1982956826686859
3.233029842376709,-0.003480929415673,-2.658932498889044e-05,0.0017291877884417,0.0906323045492172,-9.709622383117676,-0.1987222731113433
3.238035202026367,-0.0017356002936139,0.0034640692174434,0.0017291877884417,0.0899711400270462,-9.711800575256348,-0.2587090134620666
3.243039846420288,-0.0017356002936139,0.0052093984559178,-1.6141464584507048e-05,0.0901915282011032,-9.711073875427246,-0.2387134432792663
3.2480461597442627,9.72897032625042e-06,-2.658932498889044e-05,0.0034745170269161,0.0900552123785018,-9.73106288909912,-0.2391131222248077
3.2530510425567627,9.72897032625042e-06,0.0034640692174434,-0.0017614706885069,0.1102785021066665,-9.730002403259276,-0.2186909466981887
3.2580559253692627,9.72897032625042e-06,-2.658932498889044e-05,-1.6141464584507048e-05,0.0906845480203628,-9.670370101928713,-0.2179185152053833
3.263061046600342,9.72897032625042e-06,0.0017187398625537,-1.6141464584507048e-05,0.070104531943798,-9.692147254943848,-0.2587359547615051
3.268065929412842,9.72897032625042e-06,-2.658932498889044e-05,0.0017291877884417,0.070765696465969,-9.689969062805176,-0.1987492144107818
3.273070812225342,0.0017550581833347,-2.658932498889044e-05,-0.0017614706885069,0.0901915282011032,-9.711073875427246,-0.2387134432792663
3.278075933456421,9.72897032625042e-06,0.0034640692174434,-1.6141464584507048e-05,0.0907686203718185,-9.6896333694458,-0.1983226239681244
3.283080816268921,-0.0017356002936139,0.0017187398625537,0.0017291877884417,0.0909890085458755,-9.6889066696167,-0.1783270239830017
3.288085699081421,9.72897032625042e-06,0.0034640692174434,0.0034745170269161,0.1109078377485275,-9.669309616088867,-0.1974963545799255
3.2930908203125,-0.003480929415673,-2.658932498889044e-05,-1.6141464584507048e-05,0.1103307455778122,-9.690750122070312,-0.2378871887922287
3.298095703125,9.72897032625042e-06,-2.658932498889044e-05,-1.6141464584507048e-05,0.0904119163751602,-9.71034812927246,-0.2187178581953048
3.3031005859375,-0.0017356002936139,0.0034640692174434,-1.6141464584507048e-05,0.0904959887266159,-9.72961139678955,-0.1991219520568847
3.30810546875,0.0035003875382244,0.0069547276943922,0.0017291877884417,0.0904119163751602,-9.71034812927246,-0.2187178581953048
3.3131103515625,-0.003480929415673,-2.658932498889044e-05,0.0017291877884417,0.070545308291912,-9.69069480895996,-0.2187447845935821
3.3181164264678955,0.0035003875382244,0.0034640692174434,0.0034745170269161,0.0906004756689071,-9.65110683441162,-0.2375144213438034
3.3231213092803955,9.72897032625042e-06,0.0034640692174434,0.0034745170269161,0.0904641598463058,-9.671095848083496,-0.2379141002893448
3.3281264305114746,9.72897032625042e-06,-2.658932498889044e-05,0.0017291877884417,0.0896985083818435,-9.751778602600098,-0.2595083713531494
3.3331310749053955,-0.003480929415673,0.0017187398625537,-1.6141464584507048e-05,0.1105511337518692,-9.690024375915527,-0.2178916037082672
3.3381359577178955,9.72897032625042e-06,0.0034640692174434,0.0017291877884417,0.0704089924693107,-9.710683822631836,-0.2191444486379623
3.3431408405303955,9.72897032625042e-06,0.0017187398625537,-1.6141464584507048e-05,0.1106874495744705,-9.670035362243652,-0.2174919247627258
3.3481457233428955,9.72897032625042e-06,0.0017187398625537,0.0017291877884417,0.1109078377485275,-9.669309616088867,-0.1974963545799255
3.3531508445739746,9.72897032625042e-06,0.0017187398625537,0.0017291877884417,0.0909890085458755,-9.6889066696167,-0.1783270239830017
3.3581554889678955,9.72897032625042e-06,0.0034640692174434,0.0017291877884417,0.0904119163751602,-9.71034812927246,-0.2187178581953048
3.363161325454712,9.72897032625042e-06,0.0034640692174434,0.0017291877884417,0.1099740415811538,-9.711465835571287,-0.2582824230194092
3.368166446685791,0.0017550581833347,0.0017187398625537,0.0034745170269161,0.1101944297552108,-9.710739135742188,-0.2382868528366089
3.373171091079712,-0.0017356002936139,-2.658932498889044e-05,0.0034745170269161,0.1104988902807235,-9.729276657104492,-0.1986953616142273
3.3781750202178955,9.72897032625042e-06,0.0017187398625537,0.0017291877884417,0.0709020122885704,-9.6699800491333,-0.1983495354652404
3.383180856704712,-0.0017356002936139,-2.658932498889044e-05,0.0017291877884417,0.0901392847299575,-9.750326156616213,-0.2195172160863876
3.388185501098633,-0.0017356002936139,-2.658932498889044e-05,0.0034745170269161,0.0506264716386795,-9.71029281616211,-0.1995754539966583
3.393190383911133,9.72897032625042e-06,0.0017187398625537,0.0017291877884417,0.1109078377485275,-9.669309616088867,-0.1974963545799255
3.3981950283050537,-0.003480929415673,0.0034640692174434,0.0017291877884417,0.0706816241145134,-9.670705795288086,-0.2183451056480407
3.403200149536133,9.72897032625042e-06,0.0034640692174434,-1.6141464584507048e-05,0.0702408477663993,-9.672158241271973,-0.2583362758159637
3.4082047939300537,-0.0017356002936139,0.0017187398625537,-1.6141464584507048e-05,0.0906323045492172,-9.709622383117676,-0.1987222731113433
3.4132094383239746,9.72897032625042e-06,-2.658932498889044e-05,-1.6141464584507048e-05,0.1106352061033248,-9.709287643432615,-0.1982956826686859
3.4182145595550537,9.72897032625042e-06,0.0017187398625537,0.0034745170269161,0.0904959887266159,-9.72961139678955,-0.1991219520568847
3.4232194423675537,9.72897032625042e-06,0.0034640692174434,-0.0017614706885069,0.1109919100999832,-9.68857192993164,-0.1779004335403442
3.4282238483428955,9.72897032625042e-06,-2.658932498889044e-05,0.0017291877884417,0.1107192784547805,-9.72854995727539,-0.178699791431427
3.4332289695739746,9.72897032625042e-06,-2.658932498889044e-05,0.0052198460325598,0.0904119163751602,-9.71034812927246,-0.2187178581953048
3.438234806060791,9.72897032625042e-06,0.0034640692174434,-1.6141464584507048e-05,0.0904119163751602,-9.71034812927246,-0.2187178581953048
3.443239450454712,9.72897032625042e-06,-2.658932498889044e-05,-1.6141464584507048e-05,0.1101944297552108,-9.710739135742188,-0.2382868528366089
3.448244333267212,-0.003480929415673,-2.658932498889044e-05,0.0017291877884417,0.0700522884726524,-9.731398582458496,-0.2395397126674652
3.453248977661133,-0.0017356002936139,0.0034640692174434,0.0034745170269161,0.0907686203718185,-9.6896333694458,-0.1983226239681244
3.458254098892212,-0.0017356002936139,-2.658932498889044e-05,0.0017291877884417,0.0908208638429641,-9.650381088256836,-0.2175188362598419
3.463259696960449,-0.0017356002936139,-2.658932498889044e-05,-1.6141464584507048e-05,0.0908526927232742,-9.708895683288574,-0.1787267029285431
3.468263864517212,9.72897032625042e-06,0.0017187398625537,-1.6141464584507048e-05,0.0900552123785018,-9.73106288909912,-0.2391131222248077
3.4732680320739746,-0.0017356002936139,0.0017187398625537,-1.6141464584507048e-05,0.1100581139326095,-9.730728149414062,-0.2386865317821502
3.4782724380493164,9.72897032625042e-06,-0.0017719186143949,0.0034745170269161,0.0902756005525589,-9.730337142944336,-0.2191175371408462
3.4832763671875,-0.0017356002936139,-2.658932498889044e-05,-1.6141464584507048e-05,0.0903278440237045,-9.691084861755373,-0.2383137792348861
3.4882805347442627,-0.0017356002936139,0.0017187398625537,0.0034745170269161,0.0909049361944198,-9.669644355773926,-0.197922945022583
3.4932847023010254,9.72897032625042e-06,-2.658932498889044e-05,-1.6141464584507048e-05,0.1104988902807235,-9.729276657104492,-0.1986953616142273
3.498288869857788,9.72897032625042e-06,0.0034640692174434,0.0017291877884417,0.070324920117855,-9.691420555114746,-0.2387403696775436
3.503293037414551,9.72897032625042e-06,-2.658932498889044e-05,-1.6141464584507048e-05,0.0704089924693107,-9.710683822631836,-0.2191444486379623
3.50829815864563,9.72897032625042e-06,0.0034640692174434,0.0017291877884417,0.0900552123785018,-9.73106288909912,-0.2391131222248077
3.5133023262023926,9.72897032625042e-06,0.0017187398625537,0.0017291877884417,0.1105511337518692,-9.690024375915527,-0.2178916037082672
3.518306255340576,-0.0017356002936139,-0.0017719186143949,-1.6141464584507048e-05,0.0507627874612808,-9.690303802490234,-0.1991758048534393
3.5233101844787598,9.72897032625042e-06,0.0017187398625537,0.0017291877884417,0.0898870676755905,-9.692537307739258,-0.2783049345016479
3.5283143520355225,-0.0017356002936139,-2.658932498889044e-05,-1.6141464584507048e-05,0.0906323045492172,-9.709622383117676,-0.1987222731113433
3.533318281173706,-0.0017356002936139,0.0017187398625537,0.0017291877884417,0.0901392847299575,-9.750326156616213,-0.2195172160863876
3.5383224487304688,-0.0017356002936139,-2.658932498889044e-05,-1.6141464584507048e-05,0.0707134529948234,-9.729220390319824,-0.1795529723167419
3.5433268547058105,-0.0017356002936139,0.0034640692174434,0.0017291877884417,0.0904119163751602,-9.71034812927246,-0.2187178581953048
3.548330545425415,9.72897032625042e-06,-2.658932498889044e-05,0.0017291877884417,0.1104148179292678,-9.710013389587402,-0.2182912677526474
3.5533347129821777,-0.0017356002936139,-0.0017719186143949,-1.6141464584507048e-05,0.0704089924693107,-9.710683822631836,-0.2191444486379623
3.5583386421203613,9.72897032625042e-06,0.0017187398625537,0.0017291877884417,0.070986084640026,-9.689242362976074,-0.1787536144256591
3.5633437633514404,-0.0017356002936139,-2.658932498889044e-05,0.0017291877884417,0.0704089924693107,-9.710683822631836,-0.2191444486379623
3.568347692489624,9.72897032625042e-06,0.0017187398625537,0.0017291877884417,0.0904119163751602,-9.71034812927246,-0.2187178581953048
3.5733518600463867,9.72897032625042e-06,-2.658932498889044e-05,-1.6141464584507048e-05,0.1105511337518692,-9.690024375915527,-0.2178916037082672
3.5783557891845703,9.72897032625042e-06,0.0017187398625537,-1.6141464584507048e-05,0.0907686203718185,-9.6896333694458,-0.1983226239681244
3.583359718322754,-0.0017356002936139,-2.658932498889044e-05,0.0017291877884417,0.0902756005525589,-9.730337142944336,-0.2191175371408462
3.5883638858795166,9.72897032625042e-06,0.0087000569328665,0.0017291877884417,0.0706293806433677,-9.70995807647705,-0.1991488635540008
3.593367576599121,9.72897032625042e-06,-2.658932498889044e-05,-1.6141464584507048e-05,0.0906845480203628,-9.670370101928713,-0.2179185152053833
3.5983715057373047,9.72897032625042e-06,0.0052093984559178,-1.6141464584507048e-05,0.0901392847299575,-9.750326156616213,-0.2195172160863876
3.6033754348754883,9.72897032625042e-06,0.0017187398625537,0.0017291877884417,0.0904119163751602,-9.71034812927246,-0.2187178581953048
3.608379602432251,9.72897032625042e-06,0.0017187398625537,-0.0017614706885069,0.1307744234800338,-9.688963890075684,-0.1974694430828094
3.6133835315704346,-0.0017356002936139,0.0034640692174434,0.0034745170269161,0.1310788840055465,-9.707500457763672,-0.1578779071569442
3.618387460708618,9.72897032625042e-06,-2.658932498889044e-05,-1.6141464584507048e-05,0.0908526927232742,-9.708895683288574,-0.1787267029285431
3.623392343521118,-0.003480929415673,-2.658932498889044e-05,-0.0017614706885069,0.070545308291912,-9.69069480895996,-0.2187447845935821
3.6283962726593018,9.72897032625042e-06,0.0034640692174434,-1.6141464584507048e-05,0.1109919100999832,-9.68857192993164,-0.1779004335403442
3.6334004402160645,9.72897032625042e-06,0.0052093984559178,0.0017291877884417,0.0901074558496475,-9.691811561584473,-0.2583093643188476
3.6384031772613525,9.72897032625042e-06,0.0017187398625537,-1.6141464584507048e-05,0.0907686203718185,-9.6896333694458,-0.1983226239681244
3.6434078216552734,9.72897032625042e-06,-2.658932498889044e-05,-1.6141464584507048e-05,0.0912093967199325,-9.688180923461914,-0.158331423997879
3.648411750793457,0.0017550581833347,0.0017187398625537,-1.6141464584507048e-05,0.0904119163751602,-9.71034812927246,-0.2187178581953048
3.6534154415130615,-0.0017356002936139,-0.0017719186143949,-1.6141464584507048e-05,0.1100581139326095,-9.730728149414062,-0.2386865317821502
3.658419370651245,9.72897032625042e-06,0.0034640692174434,0.0017291877884417,0.0903278440237045,-9.691084861755373,-0.2383137792348861
3.6634232997894287,9.72897032625042e-06,0.0017187398625537,-1.6141464584507048e-05,0.0903278440237045,-9.691084861755373,-0.2383137792348861
3.6684272289276123,-0.0017356002936139,0.0017187398625537,0.0017291877884417,0.1101944297552108,-9.710739135742188,-0.2382868528366089
3.673431158065796,9.72897032625042e-06,0.0052093984559178,-1.6141464584507048e-05,0.1296202391386032,-9.73184585571289,-0.2782511115074157
3.6784348487854004,9.72897032625042e-06,-2.658932498889044e-05,-1.6141464584507048e-05,0.0707134529948234,-9.729220390319824,-0.1795529723167419
3.683438777923584,-0.0017356002936139,-2.658932498889044e-05,0.0034745170269161,0.0900552123785018,-9.73106288909912,-0.2391131222248077
3.6884422302246094,0.0017550581833347,0.0034640692174434,0.0017291877884417,0.1109919100999832,-9.68857192993164,-0.1779004335403442
3.6934473514556885,-0.003480929415673,0.0017187398625537,0.0034745170269161,0.1301973313093185,-9.710404396057127,-0.2378602623939514
3.6984498500823975,9.72897032625042e-06,0.0017187398625537,-1.6141464584507048e-05,0.1107192784547805,-9.72854995727539,-0.178699791431427
3.7034547328948975,9.72897032625042e-06,0.0034640692174434,-1.6141464584507048e-05,0.0901074558496475,-9.691811561584473,-0.2583093643188476
3.708458662033081,9.72897032625042e-06,0.0034640692174434,0.0034745170269161,0.0700522884726524,-9.731398582458496,-0.2395397126674652
3.7134623527526855,-0.0017356002936139,-2.658932498889044e-05,-1.6141464584507048e-05,0.0904641598463058,-9.671095848083496,-0.2379141002893448
3.71846604347229,-0.0017356002936139,-2.658932498889044e-05,-1.6141464584507048e-05,0.070545308291912,-9.69069480895996,-0.2187447845935821
3.7234699726104736,-0.0017356002936139,0.0034640692174434,-1.6141464584507048e-05,0.070545308291912,-9.69069480895996,-0.2187447845935821
3.728473424911499,-0.0017356002936139,-0.0017719186143949,-1.6141464584507048e-05,0.0899711400270462,-9.711800575256348,-0.2587090134620666
3.7334773540496826,-0.0017356002936139,0.0034640692174434,-0.0017614706885069,0.1104148179292678,-9.710013389587402,-0.2182912677526474
3.738481044769287,9.72897032625042e-06,0.0017187398625537,0.0052198460325598,0.0704089924693107,-9.710683822631836,-0.2191444486379623
3.7434849739074707,9.72897032625042e-06,-2.658932498889044e-05,-1.6141464584507048e-05,0.0700522884726524,-9.731398582458496,-0.2395397126674652
3.748488426208496,9.72897032625042e-06,0.0034640692174434,0.0034745170269161,0.0907686203718185,-9.6896333694458,-0.1983226239681244
3.753493070602417,9.72897032625042e-06,0.0034640692174434,0.0017291877884417,0.0708497688174247,-9.70923137664795,-0.1791532933712005
3.7584967613220215,9.72897032625042e-06,0.0017187398625537,-1.6141464584507048e-05,0.0906323045492172,-9.709622383117676,-0.1987222731113433
3.763500452041626,9.72897032625042e-06,-0.0017719186143949,-1.6141464584507048e-05,0.0900552123785018,-9.73106288909912,-0.2391131222248077
3.7685043811798096,-0.0017356002936139,0.0052093984559178,-1.6141464584507048e-05,0.0701886042952537,-9.71140956878662,-0.2391400337219238
3.773507833480835,-0.003480929415673,-2.658932498889044e-05,-1.6141464584507048e-05,0.0904119163751602,-9.71034812927246,-0.2187178581953048
3.7785117626190186,9.72897032625042e-06,0.0017187398625537,0.0017291877884417,0.0907686203718185,-9.6896333694458,-0.1983226239681244
3.783515214920044,-0.0017356002936139,0.0052093984559178,-0.0017614706885069,0.0907686203718185,-9.6896333694458,-0.1983226239681244
3.7885189056396484,0.0035003875382244,0.0017187398625537,0.0017291877884417,0.0904641598463058,-9.671095848083496,-0.2379141002893448
3.793522357940674,-0.0017356002936139,0.0052093984559178,-0.0017614706885069,0.1108555942773819,-9.708560943603516,-0.1783001124858856
3.7985260486602783,9.72897032625042e-06,0.0017187398625537,-1.6141464584507048e-05,0.0704089924693107,-9.710683822631836,-0.2191444486379623
3.803529739379883,-0.0052262586541473,-2.658932498889044e-05,-0.0017614706885069,0.0908526927232742,-9.708895683288574,-0.1787267029285431
3.8085334300994873,9.72897032625042e-06,-2.658932498889044e-05,0.0052198460325598,0.1305540353059768,-9.689689636230469,-0.2174650132656097
3.8135368824005127,9.72897032625042e-06,-2.658932498889044e-05,-1.6141464584507048e-05,0.0507627874612808,-9.690303802490234,-0.1991758048534393
3.8185415267944336,-0.0052262586541473,-2.658932498889044e-05,-1.6141464584507048e-05,0.1105511337518692,-9.690024375915527,-0.2178916037082672
3.823545217514038,9.72897032625042e-06,0.0034640692174434,0.0017291877884417,0.0902756005525589,-9.730337142944336,-0.2191175371408462
3.8285486698150635,9.72897032625042e-06,-2.658932498889044e-05,0.0017291877884417,0.0908526927232742,-9.708895683288574,-0.1787267029285431
3.833552360534668,-0.0017356002936139,0.0017187398625537,-1.6141464584507048e-05,0.1103625744581222,-9.749265670776367,-0.1990950405597686
3.8385560512542725,9.72897032625042e-06,0.0052093984559178,-1.6141464584507048e-05,0.1104148179292678,-9.710013389587402,-0.2182912677526474
3.8435590267181396,-0.003480929415673,-2.658932498889044e-05,-1.6141464584507048e-05,0.1104988902807235,-9.729276657104492,-0.1986953616142273
3.8485629558563232,-0.0017356002936139,0.0034640692174434,0.0052198460325598,0.0904119163751602,-9.71034812927246,-0.2187178581953048
3.8535664081573486,0.0017550581833347,0.0034640692174434,-1.6141464584507048e-05,0.0908526927232742,-9.708895683288574,-0.1787267029285431
3.858570098876953,-0.003480929415673,-2.658932498889044e-05,0.0017291877884417,0.1104148179292678,-9.710013389587402,-0.2182912677526474
3.8635735511779785,9.72897032625042e-06,0.0034640692174434,0.0017291877884417,0.1093969494104385,-9.73290729522705,-0.2986732721328735
3.868577003479004,-0.003480929415673,-2.658932498889044e-05,-0.0017614706885069,0.0709020122885704,-9.6699800491333,-0.1983495354652404
3.8735804557800293,9.72897032625042e-06,0.0034640692174434,0.0034745170269161,0.070324920117855,-9.691420555114746,-0.2387403696775436
3.8785839080810547,9.72897032625042e-06,-2.658932498889044e-05,-1.6141464584507048e-05,0.0902756005525589,-9.730337142944336,-0.2191175371408462
3.8835883140563965,-0.0017356002936139,-2.658932498889044e-05,-1.6141464584507048e-05,0.0904119163751602,-9.71034812927246,-0.2187178581953048
3.888591766357422,-0.0017356002936139,0.0034640692174434,0.0034745170269161,0.1105511337518692,-9.690024375915527,-0.2178916037082672
3.8935954570770264,0.0017550581833347,0.0034640692174434,-1.6141464584507048e-05,0.0904119163751602,-9.71034812927246,-0.2187178581953048
3.8985989093780518,9.72897032625042e-06,-0.0017719186143949,-1.6141464584507048e-05,0.0906323045492172,-9.709622383117676,-0.1987222731113433
3.903602361679077,9.72897032625042e-06,0.0017187398625537,0.0052198460325598,0.1102785021066665,-9.730002403259276,-0.2186909466981887
3.9086060523986816,9.72897032625042e-06,-2.658932498889044e-05,-1.6141464584507048e-05,0.0702726766467094,-9.730672836303713,-0.2195441275835037
3.913609027862549,-0.003480929415673,0.0017187398625537,-1.6141464584507048e-05,0.0706293806433677,-9.70995807647705,-0.1991488635540008
3.918612241744995,9.72897032625042e-06,0.0017187398625537,-1.6141464584507048e-05,0.0900552123785018,-9.73106288909912,-0.2391131222248077
3.9236159324645996,9.72897032625042e-06,0.0017187398625537,0.0034745170269161,0.0902756005525589,-9.730337142944336,-0.2191175371408462
3.928619384765625,-0.0017356002936139,0.0017187398625537,-1.6141464584507048e-05,0.070324920117855,-9.691420555114746,-0.2387403696775436
3.9336228370666504,0.0017550581833347,0.0017187398625537,-1.6141464584507048e-05,0.0901915282011032,-9.711073875427246,-0.2387134432792663
3.938626289367676,9.72897032625042e-06,0.0034640692174434,-1.6141464584507048e-05,0.0704089924693107,-9.710683822631836,-0.2191444486379623
3.9436306953430176,9.72897032625042e-06,0.0017187398625537,0.0017291877884417,0.0905482321977615,-9.690359115600586,-0.2183181941509246
3.9486327171325684,9.72897032625042e-06,-2.658932498889044e-05,0.0034745170269161,0.070104531943798,-9.692147254943848,-0.2587359547615051
3.95363712310791,-0.0052262586541473,0.0017187398625537,-0.0035067999269813,0.0704089924693107,-9.710683822631836,-0.2191444486379623
3.9586405754089355,9.72897032625042e-06,0.0034640692174434,-1.6141464584507048e-05,0.1109078377485275,-9.669309616088867,-0.1974963545799255
3.963644027709961,9.72897032625042e-06,0.0017187398625537,0.0017291877884417,0.0907686203718185,-9.6896333694458,-0.1983226239681244
3.9686472415924072,-0.0017356002936139,-2.658932498889044e-05,-1.6141464584507048e-05,0.0907163769006729,-9.72888469696045,-0.1791263818740844
3.9736506938934326,0.0017550581833347,0.0052093984559178,-1.6141464584507048e-05,0.0701886042952537,-9.71140956878662,-0.2391400337219238
3.978654146194458,9.72897032625042e-06,-2.658932498889044e-05,0.0017291877884417,0.0904959887266159,-9.72961139678955,-0.1991219520568847
3.983657121658325,-0.0017356002936139,0.0052093984559178,-1.6141464584507048e-05,0.0901915282011032,-9.711073875427246,-0.2387134432792663
3.9886605739593506,9.72897032625042e-06,-2.658932498889044e-05,-1.6141464584507048e-05,0.0501856952905654,-9.71174430847168,-0.2395666241645813
3.993663787841797,9.72897032625042e-06,-2.658932498889044e-05,-1.6141464584507048e-05,0.0903596729040145,-9.749600410461426,-0.1995216310024261
3.9986672401428223,9.72897032625042e-06,-2.658932498889044e-05,0.0052198460325598,0.0904119163751602,-9.71034812927246,-0.2187178581953048
4.0036704540252686,9.72897032625042e-06,0.0034640692174434,-1.6141464584507048e-05,0.1100581139326095,-9.730728149414062,-0.2386865317821502
4.008673429489136,9.72897032625042e-06,-2.658932498889044e-05,-1.6141464584507048e-05,0.1106352061033248,-9.709287643432615,-0.1982956826686859
4.0136778354644775,9.72897032625042e-06,-2.658932498889044e-05,0.0017291877884417,0.0909890085458755,-9.6889066696167,-0.1783270239830017
4.018681049346924,9.72897032625042e-06,-2.658932498889044e-05,-1.6141464584507048e-05,0.0902756005525589,-9.730337142944336,-0.2191175371408462
4.02368426322937,-0.0052262586541473,-2.658932498889044e-05,-1.6141464584507048e-05,0.1106352061033248,-9.709287643432615,-0.1982956826686859
4.0286877155303955,9.72897032625042e-06,-2.658932498889044e-05,0.0034745170269161,0.0906323045492172,-9.709622383117676,-0.1987222731113433
4.033690929412842,9.72897032625042e-06,0.0017187398625537,0.0034745170269161,0.070765696465969,-9.689969062805176,-0.1987492144107818
4.038694143295288,-0.0017356002936139,0.0017187398625537,0.0017291877884417,0.0507627874612808,-9.690303802490234,-0.1991758048534393
4.043697357177734,9.72897032625042e-06,0.0034640692174434,0.0034745170269161,0.1100581139326095,-9.730728149414062,-0.2386865317821502
4.048700332641602,9.72897032625042e-06,0.0017187398625537,0.0034745170269161,0.0699682161211967,-9.712136268615724,-0.2591356039047241
4.053703546524048,9.72897032625042e-06,0.0034640692174434,-1.6141464584507048e-05,0.0901915282011032,-9.711073875427246,-0.2387134432792663
4.058706760406494,-0.0017356002936139,-2.658932498889044e-05,-1.6141464584507048e-05,0.1096173375844955,-9.73218059539795,-0.2786777019500732
4.06370997428894,0.0017550581833347,-2.658932498889044e-05,0.0017291877884417,0.0907686203718185,-9.6896333694458,-0.1983226239681244
4.068714141845703,-0.0017356002936139,0.0017187398625537,-1.6141464584507048e-05,0.0906323045492172,-9.709622383117676,-0.1987222731113433
4.073717355728149,9.72897032625042e-06,-0.0017719186143949,-1.6141464584507048e-05,0.0509831756353378,-9.689577102661133,-0.1791802048683166
4.078720569610596,-0.0052262586541473,0.0052093984559178,-1.6141464584507048e-05,0.0905482321977615,-9.690359115600586,-0.2183181941509246
4.083723545074463,9.72897032625042e-06,-2.658932498889044e-05,0.0052198460325598,0.1101944297552108,-9.710739135742188,-0.2382868528366089
4.088726758956909,-0.0017356002936139,0.0034640692174434,0.0034745170269161,0.0905482321977615,-9.690359115600586,-0.2183181941509246
4.0937299728393555,9.72897032625042e-06,0.0017187398625537,0.0034745170269161,0.070545308291912,-9.69069480895996,-0.2187447845935821
4.098733186721802,-0.003480929415673,-2.658932498889044e-05,-1.6141464584507048e-05,0.1106352061033248,-9.709287643432615,-0.1982956826686859
4.103736162185669,9.72897032625042e-06,0.0017187398625537,-1.6141464584507048e-05,0.0904119163751602,-9.71034812927246,-0.2187178581953048
4.108739376068115,-0.0017356002936139,0.0034640692174434,0.0052198460325598,0.1104148179292678,-9.710013389587402,-0.2182912677526474
4.113742351531982,-0.0017356002936139,-2.658932498889044e-05,0.0034745170269161,0.1099740415811538,-9.711465835571287,-0.2582824230194092
4.11874532699585,9.72897032625042e-06,-2.658932498889044e-05,-1.6141464584507048e-05,0.0706293806433677,-9.70995807647705,-0.1991488635540008
4.123748540878296,9.72897032625042e-06,-2.658932498889044e-05,-1.6141464584507048e-05,0.1102785021066665,-9.730002403259276,-0.2186909466981887
4.128751516342163,9.72897032625042e-06,0.0017187398625537,0.0017291877884417,0.1107715219259262,-9.689298629760742,-0.1978960335254669
4.133754730224609,9.72897032625042e-06,-2.658932498889044e-05,0.0017291877884417,0.1103307455778122,-9.690750122070312,-0.2378871887922287
4.138758659362793,9.72897032625042e-06,0.0052093984559178,0.0034745170269161,0.0904119163751602,-9.71034812927246,-0.2187178581953048
4.14376163482666,9.72897032625042e-06,-2.658932498889044e-05,-1.6141464584507048e-05,0.0906323045492172,-9.709622383117676,-0.1987222731113433
4.1487648487091064,9.72897032625042e-06,0.0052093984559178,-1.6141464584507048e-05,0.1101103574037551,-9.691476821899414,-0.2578827738761902
4.153767824172974,-0.0017356002936139,0.0017187398625537,-1.6141464584507048e-05,0.0906004756689071,-9.65110683441162,-0.2375144213438034
4.158770799636841,-0.0017356002936139,0.0034640692174434,-1.6141464584507048e-05,0.1106352061033248,-9.709287643432615,-0.1982956826686859
4.163773775100708,9.72897032625042e-06,-2.658932498889044e-05,0.0034745170269161,0.1104988902807235,-9.729276657104492,-0.1986953616142273
4.168776750564575,-0.003480929415673,-2.658932498889044e-05,0.0017291877884417,0.0901915282011032,-9.711073875427246,-0.2387134432792663
4.173779726028442,9.72897032625042e-06,-2.658932498889044e-05,0.0017291877884417,0.1301451027393341,-9.749656677246094,-0.2186640352010727
4.17878270149231,9.72897032625042e-06,-2.658932498889044e-05,-1.6141464584507048e-05,0.1107715219259262,-9.689298629760742,-0.1978960335254669
4.183785438537598,-0.0017356002936139,0.0052093984559178,0.0052198460325598,0.0909049361944198,-9.669644355773926,-0.197922945022583
4.188788652420044,-0.0017356002936139,0.0017187398625537,0.0017291877884417,0.0906845480203628,-9.670370101928713,-0.2179185152053833
4.193791627883911,9.72897032625042e-06,0.0052093984559178,-1.6141464584507048e-05,0.1102785021066665,-9.730002403259276,-0.2186909466981887
4.198795557022095,-0.0017356002936139,0.0017187398625537,-1.6141464584507048e-05,0.0903278440237045,-9.691084861755373,-0.2383137792348861
4.203798532485962,9.72897032625042e-06,0.0017187398625537,-1.6141464584507048e-05,0.0704089924693107,-9.710683822631836,-0.2191444486379623
4.208801507949829,-0.003480929415673,-2.658932498889044e-05,0.0017291877884417,0.1302814036607742,-9.72966766357422,-0.2182643562555313
4.213804244995117,9.72897032625042e-06,0.0034640692174434,-1.6141464584507048e-05,0.0902756005525589,-9.730337142944336,-0.2191175371408462
4.2188074588775635,9.72897032625042e-06,-2.658932498889044e-05,0.0034745170269161,0.0901074558496475,-9.691811561584473,-0.2583093643188476
4.2238099575042725,9.72897032625042e-06,0.0017187398625537,-0.0017614706885069,0.0702726766467094,-9.730672836303713,-0.2195441275835037
4.22881293296814,9.72897032625042e-06,0.0034640692174434,0.0034745170269161,0.1105511337518692,-9.690024375915527,-0.2178916037082672
4.233815908432007,-0.0017356002936139,0.0017187398625537,-1.6141464584507048e-05,0.0907686203718185,-9.6896333694458,-0.1983226239681244
4.238818883895874,9.72897032625042e-06,0.0052093984559178,0.0017291877884417,0.0906323045492172,-9.709622383117676,-0.1987222731113433
4.243821859359741,9.72897032625042e-06,0.0017187398625537,-1.6141464584507048e-05,0.0708497688174247,-9.70923137664795,-0.1791532933712005
4.24882435798645,9.72897032625042e-06,0.0069547276943922,0.0017291877884417,0.0902756005525589,-9.730337142944336,-0.2191175371408462
4.253828287124634,9.72897032625042e-06,-2.658932498889044e-05,-1.6141464584507048e-05,0.0904959887266159,-9.72961139678955,-0.1991219520568847
4.258831024169922,9.72897032625042e-06,-0.0017719186143949,0.0017291877884417,0.1110759824514389,-9.70783519744873,-0.1583044975996017
4.263833999633789,9.72897032625042e-06,0.0017187398625537,0.0034745170269161,0.0706293806433677,-9.70995807647705,-0.1991488635540008
4.268836975097656,-0.0017356002936139,0.0017187398625537,0.0017291877884417,0.0503220111131668,-9.691755294799805,-0.2391669601202011
4.273839950561523,9.72897032625042e-06,-2.658932498889044e-05,-1.6141464584507048e-05,0.0704089924693107,-9.710683822631836,-0.2191444486379623
4.278842449188232,-0.003480929415673,0.0034640692174434,-1.6141464584507048e-05,0.1110759824514389,-9.70783519744873,-0.1583044975996017
4.2838454246521,9.72897032625042e-06,0.0052093984559178,-1.6141464584507048e-05,0.0901915282011032,-9.711073875427246,-0.2387134432792663
4.288848161697388,9.72897032625042e-06,0.0034640692174434,-1.6141464584507048e-05,0.0903596729040145,-9.749600410461426,-0.1995216310024261
4.293850898742676,9.72897032625042e-06,-2.658932498889044e-05,-1.6141464584507048e-05,0.0904119163751602,-9.71034812927246,-0.2187178581953048
4.298853874206543,-0.0052262586541473,0.0017187398625537,0.0034745170269161,0.1109919100999832,-9.68857192993164,-0.1779004335403442
4.303856372833252,-0.003480929415673,0.0017187398625537,-1.6141464584507048e-05,0.0903278440237045,-9.691084861755373,-0.2383137792348861
4.30885910987854,9.72897032625042e-06,0.0034640692174434,-0.0017614706885069,0.0901915282011032,-9.711073875427246,-0.2387134432792663
