timestamp,angular_velocity.x,angular_velocity.y,angular_velocity.z,linear_acceleration.x,linear_acceleration.y,linear_acceleration.z
0.0,0.0035003875382244,-2.658932498889044e-05,-1.6141464584507048e-05,0.1105511337518692,-9.690024375915527,-0.2178916037082672
0.005017280578613281,-0.0017356002936139,-2.658932498889044e-05,0.0034745170269161,0.1312992721796035,-9.70677375793457,-0.1378823220729828
0.010034322738647461,-0.0017356002936139,0.0017187398625537,-1.6141464584507048e-05,0.1514384895563125,-9.68644905090332,-0.1370560675859451
0.015052556991577148,9.72897032625042e-06,-0.0017719186143949,-1.6141464584507048e-05,0.1509977132081985,-9.687901496887209,-0.1770472526550293
0.020069599151611328,9.72897032625042e-06,0.0052093984559178,-1.6141464584507048e-05,0.1310788840055465,-9.707500457763672,-0.1578779071569442
0.025086402893066406,9.72897032625042e-06,-0.0052625769749283,-1.6141464584507048e-05,0.1109919100999832,-9.68857192993164,-0.1779004335403442
0.030104875564575195,9.72897032625042e-06,0.0034640692174434,-1.6141464584507048e-05,0.1314355880022049,-9.686784744262695,-0.1374826580286026
0.035121917724609375,9.72897032625042e-06,-2.658932498889044e-05,-1.6141464584507048e-05,0.1312992721796035,-9.70677375793457,-0.1378823220729828
0.04014015197753906,9.72897032625042e-06,0.0017187398625537,-1.6141464584507048e-05,0.1503683924674987,-9.748595237731934,-0.1982418596744537
0.04515719413757324,-0.0017356002936139,-2.658932498889044e-05,-1.6141464584507048e-05,0.1515225619077682,-9.70571231842041,-0.117460161447525
0.05017399787902832,9.72897032625042e-06,0.0017187398625537,-1.6141464584507048e-05,0.1515225619077682,-9.70571231842041,-0.117460161447525
0.0551915168762207,9.72897032625042e-06,-2.658932498889044e-05,-1.6141464584507048e-05,0.1313515156507492,-9.667522430419922,-0.1570785641670227
0.06020975112915039,-0.0017356002936139,-2.658932498889044e-05,-1.6141464584507048e-05,0.1317922919988632,-9.666069984436035,-0.1170874089002609
0.06522679328918457,9.72897032625042e-06,-2.658932498889044e-05,0.0017291877884417,0.0910730808973312,-9.708169937133787,-0.1587310880422592
0.07024407386779785,9.72897032625042e-06,-2.658932498889044e-05,-1.6141464584507048e-05,0.1511658579111099,-9.72642707824707,-0.1378554105758667
0.07526206970214844,-0.0017356002936139,0.0017187398625537,0.0017291877884417,0.1309425681829452,-9.727489471435549,-0.1582775861024856
0.08027935028076172,-0.0017356002936139,-2.658932498889044e-05,-1.6141464584507048e-05,0.1105829626321792,-9.748538970947266,-0.1790994703769683
0.0852975845336914,9.72897032625042e-06,0.0017187398625537,-1.6141464584507048e-05,0.1310788840055465,-9.707500457763672,-0.1578779071569442
0.09031438827514648,-0.003480929415673,-2.658932498889044e-05,-1.6141464584507048e-05,0.1314355880022049,-9.686784744262695,-0.1374826580286026
0.09533190727233887,9.72897032625042e-06,0.0017187398625537,0.0034745170269161,0.1517111212015152,-9.64647102355957,-0.1362567096948623
0.10034918785095215,-0.0017356002936139,0.0034640692174434,-1.6141464584507048e-05,0.1314355880022049,-9.686784744262695,-0.1374826580286026
0.10536718368530273,9.72897032625042e-06,0.0052093984559178,-0.0017614706885069,0.1309425681829452,-9.727489471435549,-0.1582775861024856
0.11038446426391602,-0.0069715878926217,0.0017187398625537,0.0017291877884417,0.1509454697370529,-9.727153778076172,-0.1578509956598281
0.1154026985168457,-0.0017356002936139,-2.658932498889044e-05,0.0034745170269161,0.1511658579111099,-9.72642707824707,-0.1378554105758667
0.12041997909545898,9.72897032625042e-06,0.0017187398625537,-1.6141464584507048e-05,0.1513021737337112,-9.706438064575195,-0.1374557316303253
0.12543725967407227,9.72897032625042e-06,-2.658932498889044e-05,-1.6141464584507048e-05,0.1116530746221542,-9.686393737792969,-0.1179136782884597
0.13045549392700195,9.72897032625042e-06,0.0034640692174434,-1.6141464584507048e-05,0.1314355880022049,-9.686784744262695,-0.1374826580286026
0.13547253608703613,9.72897032625042e-06,0.0017187398625537,0.0017291877884417,0.1312992721796035,-9.70677375793457,-0.1378823220729828
0.14049005508422852,-0.003480929415673,-2.658932498889044e-05,-1.6141464584507048e-05,0.1512499451637268,-9.74569034576416,-0.1182595193386077
0.1455073356628418,9.72897032625042e-06,0.0017187398625537,-1.6141464584507048e-05,0.1308062672615051,-9.747478485107422,-0.158677265048027
0.15052533149719238,-0.003480929415673,0.0017187398625537,-1.6141464584507048e-05,0.1513021737337112,-9.706438064575195,-0.1374557316303253
0.15554261207580566,-0.003480929415673,-2.658932498889044e-05,-1.6141464584507048e-05,0.1112963706254959,-9.707108497619627,-0.1383089125156402
0.16056108474731445,-0.003480929415673,0.0034640692174434,0.0017291877884417,0.1313515156507492,-9.667522430419922,-0.1570785641670227
0.16557860374450684,9.72897032625042e-06,-2.658932498889044e-05,-1.6141464584507048e-05,0.1520678251981735,-9.62575626373291,-0.1158614605665206
0.17059540748596191,9.72897032625042e-06,-2.658932498889044e-05,0.0017291877884417,0.1312151998281479,-9.687511444091797,-0.1574782431125641
0.1756136417388916,-0.0017356002936139,-2.658932498889044e-05,0.0017291877884417,0.1110759824514389,-9.70783519744873,-0.1583044975996017
0.18063116073608398,-0.0017356002936139,0.0017187398625537,-1.6141464584507048e-05,0.1308584958314895,-9.708226203918455,-0.1778735220432281
0.18564844131469727,9.72897032625042e-06,-2.658932498889044e-05,0.0017291877884417,0.1311107277870178,-9.76601505279541,-0.1190857887268066
0.19066667556762695,9.72897032625042e-06,-2.658932498889044e-05,-1.6141464584507048e-05,0.1505887806415558,-9.747868537902832,-0.1782462894916534
0.19568419456481934,9.72897032625042e-06,-2.658932498889044e-05,-0.0017614706885069,0.1314355880022049,-9.686784744262695,-0.1374826580286026
0.20070147514343262,-0.0017356002936139,-2.658932498889044e-05,-1.6141464584507048e-05,0.1109919100999832,-9.68857192993164,-0.1779004335403442
0.2057197093963623,-0.003480929415673,0.0034640692174434,-1.6141464584507048e-05,0.1311311274766922,-9.668248176574709,-0.1770741641521453
0.21073698997497559,9.72897032625042e-06,-2.658932498889044e-05,-1.6141464584507048e-05,0.1305858790874481,-9.748204231262209,-0.1786728799343109
0.21575522422790527,-0.0017356002936139,0.0017187398625537,0.0017291877884417,0.1513021737337112,-9.706438064575195,-0.1374557316303253
0.22077274322509766,9.72897032625042e-06,-2.658932498889044e-05,-1.6141464584507048e-05,0.1108555942773819,-9.708560943603516,-0.1783001124858856
0.22579002380371094,9.72897032625042e-06,0.0017187398625537,-1.6141464584507048e-05,0.1313833445310592,-9.72603702545166,-0.1182864308357238
0.23080825805664062,-0.0052262586541473,0.0052093984559178,0.0017291877884417,0.1316559761762619,-9.68605899810791,-0.1174870878458023
0.2358255386352539,-0.0052262586541473,-2.658932498889044e-05,-1.6141464584507048e-05,0.1115690022706985,-9.66713047027588,-0.1375095695257187
0.2408430576324463,9.72897032625042e-06,-2.658932498889044e-05,-1.6141464584507048e-05,0.1312151998281479,-9.687511444091797,-0.1574782431125641
0.24586129188537598,9.72897032625042e-06,0.0052093984559178,-1.6141464584507048e-05,0.1310788840055465,-9.707500457763672,-0.1578779071569442
0.25087881088256836,-0.0017356002936139,0.0017187398625537,0.0017291877884417,0.1307221800088882,-9.728215217590332,-0.1782732009887695
0.25589609146118164,0.0017550581833347,0.0017187398625537,-1.6141464584507048e-05,0.1513021737337112,-9.706438064575195,-0.1374557316303253
0.260913610458374,9.72897032625042e-06,0.0017187398625537,0.0017291877884417,0.1312151998281479,-9.687511444091797,-0.1574782431125641
0.2659316062927246,-0.0017356002936139,-2.658932498889044e-05,-1.6141464584507048e-05,0.1513021737337112,-9.706438064575195,-0.1374557316303253
0.2709493637084961,9.72897032625042e-06,0.0017187398625537,-1.6141464584507048e-05,0.1311311274766922,-9.668248176574709,-0.1770741641521453
0.2759664058685303,-0.003480929415673,0.0017187398625537,0.0017291877884417,0.1314355880022049,-9.686784744262695,-0.1374826580286026
0.28098511695861816,9.72897032625042e-06,-2.658932498889044e-05,0.0034745170269161,0.1309948116540908,-9.688237190246582,-0.1774738430976867
0.28600239753723145,-0.003480929415673,0.0034640692174434,-0.0035067999269813,0.1309425681829452,-9.727489471435549,-0.1582775861024856
0.29102087020874023,-0.0017356002936139,0.0034640692174434,-0.0017614706885069,0.1310266554355621,-9.74675178527832,-0.1386816799640655
0.2960383892059326,-0.003480929415673,-2.658932498889044e-05,0.0034745170269161,0.1305858790874481,-9.748204231262209,-0.1786728799343109
0.301055908203125,9.72897032625042e-06,0.0017187398625537,-1.6141464584507048e-05,0.1111282259225845,-9.668582916259766,-0.1775007545948028
0.3060741424560547,9.72897032625042e-06,-2.658932498889044e-05,-1.6141464584507048e-05,0.1513021737337112,-9.706438064575195,-0.1374557316303253
0.31109166145324707,9.72897032625042e-06,0.0017187398625537,-1.6141464584507048e-05,0.1309948116540908,-9.688237190246582,-0.1774738430976867
0.31610918045043945,-0.003480929415673,-2.658932498889044e-05,0.0017291877884417,0.1513862460851669,-9.725701332092283,-0.1178598403930664
0.32112765312194824,9.72897032625042e-06,0.0017187398625537,0.0034745170269161,0.1310788840055465,-9.707500457763672,-0.1578779071569442
0.3261449337005615,9.72897032625042e-06,-2.658932498889044e-05,-1.6141464584507048e-05,0.1510817855596542,-9.707164764404297,-0.1574513167142868
0.3311624526977539,9.72897032625042e-06,-0.0017719186143949,-1.6141464584507048e-05,0.1109396666288375,-9.727824211120604,-0.1587041765451431
0.3361809253692627,9.72897032625042e-06,0.0017187398625537,0.0017291877884417,0.1309425681829452,-9.727489471435549,-0.1582775861024856
0.3411984443664551,0.0017550581833347,0.0017187398625537,-1.6141464584507048e-05,0.1317082196474075,-9.646806716918944,-0.1366833001375198
0.34621620178222656,-0.0017356002936139,0.0017187398625537,-1.6141464584507048e-05,0.1509977132081985,-9.687901496887209,-0.1770472526550293
0.35123443603515625,9.72897032625042e-06,0.0017187398625537,-1.6141464584507048e-05,0.1312151998281479,-9.687511444091797,-0.1574782431125641
0.35625219345092773,-0.0052262586541473,-2.658932498889044e-05,-1.6141464584507048e-05,0.1508613973855972,-9.707890510559082,-0.1774469316005706
0.361269474029541,9.72897032625042e-06,-2.658932498889044e-05,-1.6141464584507048e-05,0.1509977132081985,-9.687901496887209,-0.1770472526550293
0.3662877082824707,9.72897032625042e-06,0.0034640692174434,-0.0017614706885069,0.1311629563570022,-9.726762771606444,-0.1382820010185241
0.3713054656982422,9.72897032625042e-06,-2.658932498889044e-05,-1.6141464584507048e-05,0.1310788840055465,-9.707500457763672,-0.1578779071569442
0.37632298469543457,9.72897032625042e-06,-2.658932498889044e-05,-1.6141464584507048e-05,0.1112963706254959,-9.707108497619627,-0.1383089125156402
0.38134145736694336,9.72897032625042e-06,0.0034640692174434,-1.6141464584507048e-05,0.1314355880022049,-9.686784744262695,-0.1374826580286026
0.38635897636413574,-0.003480929415673,0.0017187398625537,0.0052198460325598,0.1512181013822555,-9.687175750732422,-0.1570516526699066
0.3913764953613281,9.72897032625042e-06,0.0017187398625537,-1.6141464584507048e-05,0.1513862460851669,-9.725701332092283,-0.1178598403930664
0.3963949680328369,9.72897032625042e-06,0.0017187398625537,0.0017291877884417,0.1307221800088882,-9.728215217590332,-0.1782732009887695
0.4014124870300293,9.72897032625042e-06,-2.658932498889044e-05,0.0034745170269161,0.1312992721796035,-9.70677375793457,-0.1378823220729828
0.4064300060272217,-0.0017356002936139,0.0052093984559178,0.0052198460325598,0.1110759824514389,-9.70783519744873,-0.1583044975996017
0.41144871711730957,0.0017550581833347,-2.658932498889044e-05,0.0017291877884417,0.1316559761762619,-9.68605899810791,-0.1174870878458023
0.41646599769592285,-0.003480929415673,-0.0017719186143949,0.0052198460325598,0.1508613973855972,-9.707890510559082,-0.1774469316005706
0.42148375511169434,9.72897032625042e-06,-2.658932498889044e-05,0.0052198460325598,0.1314355880022049,-9.686784744262695,-0.1374826580286026
0.4265024662017822,-0.0017356002936139,0.0017187398625537,0.0034745170269161,0.1116530746221542,-9.686393737792969,-0.1179136782884597
0.4315199851989746,-0.0017356002936139,-2.658932498889044e-05,-1.6141464584507048e-05,0.1510817855596542,-9.707164764404297,-0.1574513167142868
0.436537504196167,-0.0017356002936139,-2.658932498889044e-05,0.0017291877884417,0.1116530746221542,-9.686393737792969,-0.1179136782884597
0.4415562152862549,9.72897032625042e-06,-2.658932498889044e-05,0.0034745170269161,0.1308062672615051,-9.747478485107422,-0.158677265048027
0.44657373428344727,9.72897032625042e-06,-2.658932498889044e-05,-0.0017614706885069,0.1509454697370529,-9.727153778076172,-0.1578509956598281
0.45159125328063965,-0.0017356002936139,0.0017187398625537,0.0017291877884417,0.1314355880022049,-9.686784744262695,-0.1374826580286026
0.45661020278930664,-0.0017356002936139,-2.658932498889044e-05,-0.0017614706885069,0.1314355880022049,-9.686784744262695,-0.1374826580286026
0.461627721786499,9.72897032625042e-06,-2.658932498889044e-05,0.0017291877884417,0.1312151998281479,-9.687511444091797,-0.1574782431125641
0.4666452407836914,-0.0052262586541473,0.0034640692174434,-1.6141464584507048e-05,0.1110759824514389,-9.70783519744873,-0.1583044975996017
0.4716637134552002,9.72897032625042e-06,0.0017187398625537,0.0052198460325598,0.1508091688156128,-9.747142791748049,-0.1582506746053695
0.4766817092895508,-0.0017356002936139,-2.658932498889044e-05,0.0034745170269161,0.1107192784547805,-9.72854995727539,-0.178699791431427
0.48170018196105957,-0.0017356002936139,0.0017187398625537,-1.6141464584507048e-05,0.1707279980182647,-9.727544784545898,-0.1774200201034546
0.48671770095825195,-0.003480929415673,0.0017187398625537,-1.6141464584507048e-05,0.1514384895563125,-9.68644905090332,-0.1370560675859451
0.49173521995544434,9.72897032625042e-06,0.0017187398625537,0.0017291877884417,0.0916501730680465,-9.686728477478027,-0.1183402687311172
0.4967532157897949,9.72897032625042e-06,0.0034640692174434,-1.6141464584507048e-05,0.1316559761762619,-9.68605899810791,-0.1174870878458023
0.5017716884613037,-0.0017356002936139,0.0034640692174434,-1.6141464584507048e-05,0.1110759824514389,-9.70783519744873,-0.1583044975996017
0.5067892074584961,-0.0017356002936139,-0.0017719186143949,0.0017291877884417,0.1513021737337112,-9.706438064575195,-0.1374557316303253
0.5118069648742676,9.72897032625042e-06,0.0034640692174434,0.0017291877884417,0.1713050901889801,-9.706103324890137,-0.137029156088829
0.5168256759643555,-0.0017356002936139,-2.658932498889044e-05,-1.6141464584507048e-05,0.1312992721796035,-9.70677375793457,-0.1378823220729828
0.5218431949615479,9.72897032625042e-06,0.0017187398625537,0.0017291877884417,0.1311629563570022,-9.726762771606444,-0.1382820010185241
0.5268619060516357,-0.0017356002936139,-0.0017719186143949,0.0034745170269161,0.1310788840055465,-9.707500457763672,-0.1578779071569442
0.5318799018859863,-0.003480929415673,0.0034640692174434,-1.6141464584507048e-05,0.1516588777303695,-9.685723304748535,-0.1170604974031448
0.5368971824645996,9.72897032625042e-06,-2.658932498889044e-05,-1.6141464584507048e-05,0.1112963706254959,-9.707108497619627,-0.1383089125156402
0.5419161319732666,9.72897032625042e-06,-2.658932498889044e-05,0.0034745170269161,0.1112963706254959,-9.707108497619627,-0.1383089125156402
0.5469341278076172,-0.003480929415673,0.0017187398625537,-1.6141464584507048e-05,0.1106670349836349,-9.767802238464355,-0.1595035344362259
0.5519516468048096,9.72897032625042e-06,0.0017187398625537,-1.6141464584507048e-05,0.1516066342592239,-9.724974632263184,-0.0978642553091049
0.5569705963134766,9.72897032625042e-06,0.0034640692174434,0.0017291877884417,0.1112963706254959,-9.707108497619627,-0.1383089125156402
0.5619878768920898,-0.0017356002936139,-2.658932498889044e-05,-1.6141464584507048e-05,0.1112122982740402,-9.687846183776855,-0.1579048335552215
0.5670058727264404,9.72897032625042e-06,0.0052093984559178,-1.6141464584507048e-05,0.1315719038248062,-9.66679573059082,-0.1370829790830612
0.5720245838165283,9.72897032625042e-06,-2.658932498889044e-05,-1.6141464584507048e-05,0.1514384895563125,-9.68644905090332,-0.1370560675859451
0.5770423412322998,-0.003480929415673,0.0034640692174434,-1.6141464584507048e-05,0.1510817855596542,-9.707164764404297,-0.1574513167142868
0.5820600986480713,-0.0052262586541473,-2.658932498889044e-05,-0.0017614706885069,0.1308062672615051,-9.747478485107422,-0.158677265048027
0.5870788097381592,-0.0017356002936139,-2.658932498889044e-05,-1.6141464584507048e-05,0.1513021737337112,-9.706438064575195,-0.1374557316303253
0.5920965671539307,-0.0017356002936139,0.0017187398625537,-1.6141464584507048e-05,0.1511658579111099,-9.72642707824707,-0.1378554105758667
0.5971155166625977,-0.003480929415673,-2.658932498889044e-05,-1.6141464584507048e-05,0.1315196603536605,-9.706048011779783,-0.1178867518901825
0.6021332740783691,-0.0017356002936139,-2.658932498889044e-05,0.0017291877884417,0.1512181013822555,-9.687175750732422,-0.1570516526699066
0.6071507930755615,-0.0017356002936139,0.0017187398625537,0.0017291877884417,0.1116530746221542,-9.686393737792969,-0.1179136782884597
0.612168550491333,9.72897032625042e-06,0.0017187398625537,0.0017291877884417,0.1511658579111099,-9.72642707824707,-0.1378554105758667
0.6171875,-0.003480929415673,-0.0017719186143949,-1.6141464584507048e-05,0.1113804429769516,-9.72637176513672,-0.1187130212783813
0.6222052574157715,9.72897032625042e-06,0.0017187398625537,0.0017291877884417,0.1307221800088882,-9.728215217590332,-0.1782732009887695
0.627223014831543,9.72897032625042e-06,0.0017187398625537,0.0034745170269161,0.1310788840055465,-9.707500457763672,-0.1578779071569442
0.6322422027587891,9.72897032625042e-06,0.0017187398625537,-1.6141464584507048e-05,0.1312992721796035,-9.70677375793457,-0.1378823220729828
0.6372597217559814,-0.0017356002936139,-2.658932498889044e-05,-1.6141464584507048e-05,0.1516588777303695,-9.685723304748535,-0.1170604974031448
0.6422774791717529,9.72897032625042e-06,0.0017187398625537,0.0017291877884417,0.1309948116540908,-9.688237190246582,-0.1774738430976867
0.6472964286804199,9.72897032625042e-06,0.0017187398625537,-1.6141464584507048e-05,0.1311629563570022,-9.726762771606444,-0.1382820010185241
0.6523141860961914,-0.0017356002936139,0.0034640692174434,-1.6141464584507048e-05,0.1309425681829452,-9.727489471435549,-0.1582775861024856
0.6573328971862793,-0.0017356002936139,0.0017187398625537,-0.0017614706885069,0.1311629563570022,-9.726762771606444,-0.1382820010185241
0.662351131439209,-0.0017356002936139,-2.658932498889044e-05,0.0034745170269161,0.1508613973855972,-9.707890510559082,-0.1774469316005706
0.6673688888549805,9.72897032625042e-06,0.0017187398625537,-1.6141464584507048e-05,0.1507250815629959,-9.727879524230955,-0.177846610546112
0.6723864078521729,-0.003480929415673,-2.658932498889044e-05,-1.6141464584507048e-05,0.1714414060115814,-9.686114311218262,-0.1366294920444488
0.6774053573608398,9.72897032625042e-06,0.0034640692174434,-1.6141464584507048e-05,0.1109078377485275,-9.669309616088867,-0.1974963545799255
0.6824233531951904,-0.0017356002936139,0.0052093984559178,-1.6141464584507048e-05,0.1308584958314895,-9.708226203918455,-0.1778735220432281
0.6874411106109619,9.72897032625042e-06,0.0017187398625537,-1.6141464584507048e-05,0.1711687743663787,-9.726092338562012,-0.1374288350343704
0.6924600601196289,9.72897032625042e-06,-2.658932498889044e-05,0.0017291877884417,0.1514384895563125,-9.68644905090332,-0.1370560675859451
0.6974780559539795,-0.0017356002936139,0.0034640692174434,-1.6141464584507048e-05,0.1310788840055465,-9.707500457763672,-0.1578779071569442
0.7024970054626465,0.0017550581833347,-2.658932498889044e-05,-1.6141464584507048e-05,0.1314355880022049,-9.686784744262695,-0.1374826580286026
0.7075150012969971,-0.003480929415673,0.0034640692174434,0.0017291877884417,0.1514384895563125,-9.68644905090332,-0.1370560675859451
0.7125329971313477,9.72897032625042e-06,0.0017187398625537,0.0017291877884417,0.1314355880022049,-9.686784744262695,-0.1374826580286026
0.7175514698028564,9.72897032625042e-06,-2.658932498889044e-05,-1.6141464584507048e-05,0.1312674432992935,-9.648259162902832,-0.176674485206604
0.722569465637207,9.72897032625042e-06,0.0034640692174434,0.0017291877884417,0.1312992721796035,-9.70677375793457,-0.1378823220729828
0.7275874614715576,-0.003480929415673,-2.658932498889044e-05,-1.6141464584507048e-05,0.1507250815629959,-9.727879524230955,-0.177846610546112
0.7326064109802246,-0.0017356002936139,0.0017187398625537,0.0052198460325598,0.1309425681829452,-9.727489471435549,-0.1582775861024856
0.7376241683959961,-0.0017356002936139,0.0034640692174434,-1.6141464584507048e-05,0.1315196603536605,-9.706048011779783,-0.1178867518901825
0.7426424026489258,9.72897032625042e-06,0.0017187398625537,-1.6141464584507048e-05,0.1512181013822555,-9.687175750732422,-0.1570516526699066
0.7476582527160645,-0.0017356002936139,-2.658932498889044e-05,0.0034745170269161,0.1316559761762619,-9.68605899810791,-0.1174870878458023
0.752669095993042,9.72897032625042e-06,-2.658932498889044e-05,-1.6141464584507048e-05,0.1517951935529709,-9.66573429107666,-0.1166608184576034
0.7576801776885986,9.72897032625042e-06,-0.0017719186143949,0.0017291877884417,0.1314355880022049,-9.686784744262695,-0.1374826580286026
0.7626924514770508,-0.003480929415673,0.0052093984559178,-1.6141464584507048e-05,0.1308062672615051,-9.747478485107422,-0.158677265048027
0.7677032947540283,9.72897032625042e-06,-2.658932498889044e-05,-1.6141464584507048e-05,0.1507250815629959,-9.727879524230955,-0.177846610546112
0.7727146148681641,9.72897032625042e-06,0.0017187398625537,0.0017291877884417,0.1505887806415558,-9.747868537902832,-0.1782462894916534
0.7777254581451416,-0.0017356002936139,0.0034640692174434,-1.6141464584507048e-05,0.1504206210374832,-9.709342956542969,-0.2174380868673324
0.7827374935150146,9.72897032625042e-06,0.0017187398625537,-0.0017614706885069,0.1515225619077682,-9.70571231842041,-0.117460161447525
0.7877485752105713,9.72897032625042e-06,-2.658932498889044e-05,-1.6141464584507048e-05,0.1316559761762619,-9.68605899810791,-0.1174870878458023
0.7927606105804443,-0.003480929415673,0.0017187398625537,-1.6141464584507048e-05,0.1513544172048568,-9.667186737060549,-0.1566519737243652
0.7978134155273438,9.72897032625042e-06,-2.658932498889044e-05,-1.6141464584507048e-05,0.1516588777303695,-9.685723304748535,-0.1170604974031448
0.8028826713562012,-0.003480929415673,0.0034640692174434,-1.6141464584507048e-05,0.1110237389802932,-9.74708652496338,-0.139108270406723
0.8079533576965332,9.72897032625042e-06,-2.658932498889044e-05,0.0017291877884417,0.1306699514389038,-9.767467498779297,-0.1590769439935684
0.8130226135253906,9.72897032625042e-06,0.0017187398625537,-1.6141464584507048e-05,0.1314355880022049,-9.686784744262695,-0.1374826580286026
0.8180923461914062,9.72897032625042e-06,-2.658932498889044e-05,0.0017291877884417,0.1310788840055465,-9.707500457763672,-0.1578779071569442
0.8231630325317383,9.72897032625042e-06,0.0034640692174434,-1.6141464584507048e-05,0.1311311274766922,-9.668248176574709,-0.1770741641521453
0.8282325267791748,9.72897032625042e-06,0.0034640692174434,0.0017291877884417,0.1512181013822555,-9.687175750732422,-0.1570516526699066
0.8333024978637695,-0.003480929415673,0.0017187398625537,0.0017291877884417,0.1314355880022049,-9.686784744262695,-0.1374826580286026
0.8383731842041016,-0.0017356002936139,-2.658932498889044e-05,-1.6141464584507048e-05,0.1309425681829452,-9.727489471435549,-0.1582775861024856
0.8434431552886963,-0.0017356002936139,-2.658932498889044e-05,0.0034745170269161,0.1308584958314895,-9.708226203918455,-0.1778735220432281
0.8485128879547119,-0.0017356002936139,-2.658932498889044e-05,-1.6141464584507048e-05,0.1509454697370529,-9.727153778076172,-0.1578509956598281
0.8535840511322021,9.72897032625042e-06,-2.658932498889044e-05,0.0017291877884417,0.1510817855596542,-9.707164764404297,-0.1574513167142868
0.8586540222167969,9.72897032625042e-06,0.0034640692174434,-0.0017614706885069,0.1111282259225845,-9.668582916259766,-0.1775007545948028
0.8637239933013916,-0.003480929415673,0.0017187398625537,-1.6141464584507048e-05,0.1312992721796035,-9.70677375793457,-0.1378823220729828
0.8687953948974609,-0.0017356002936139,-2.658932498889044e-05,0.0017291877884417,0.1511340290307998,-9.667912483215332,-0.1766475737094879
0.8738653659820557,-0.0017356002936139,0.0017187398625537,-0.0017614706885069,0.1108555942773819,-9.708560943603516,-0.1783001124858856
0.8789370059967041,9.72897032625042e-06,-2.658932498889044e-05,0.0034745170269161,0.1305858790874481,-9.748204231262209,-0.1786728799343109
0.8840069770812988,-0.0017356002936139,-2.658932498889044e-05,-1.6141464584507048e-05,0.1312992721796035,-9.70677375793457,-0.1378823220729828
0.8890771865844727,-0.0017356002936139,0.0017187398625537,0.0017291877884417,0.1112963706254959,-9.707108497619627,-0.1383089125156402
0.8941478729248047,9.72897032625042e-06,-2.658932498889044e-05,0.0017291877884417,0.1114326864480972,-9.687119483947754,-0.13790924847126
0.899219274520874,9.72897032625042e-06,0.0052093984559178,-1.6141464584507048e-05,0.1312992721796035,-9.70677375793457,-0.1378823220729828
0.904289722442627,-0.0017356002936139,0.0017187398625537,-0.0017614706885069,0.1309425681829452,-9.727489471435549,-0.1582775861024856
0.909360408782959,9.72897032625042e-06,0.0017187398625537,0.0017291877884417,0.1511340290307998,-9.667912483215332,-0.1766475737094879
0.9144320487976074,-0.0017356002936139,-2.658932498889044e-05,-1.6141464584507048e-05,0.1109396666288375,-9.727824211120604,-0.1587041765451431
0.9195029735565186,9.72897032625042e-06,0.0017187398625537,-1.6141464584507048e-05,0.1313833445310592,-9.72603702545166,-0.1182864308357238
0.924574613571167,9.72897032625042e-06,0.0017187398625537,-1.6141464584507048e-05,0.1511658579111099,-9.72642707824707,-0.1378554105758667
0.9296455383300781,-0.003480929415673,0.0017187398625537,0.0017291877884417,0.1510817855596542,-9.707164764404297,-0.1574513167142868
0.934715986251831,9.72897032625042e-06,-2.658932498889044e-05,-1.6141464584507048e-05,0.1113486140966415,-9.66785717010498,-0.1575051546096801
0.9397883415222168,9.72897032625042e-06,0.0017187398625537,-1.6141464584507048e-05,0.1118734627962112,-9.685667037963867,-0.0979180932044982
0.9448590278625488,-0.0017356002936139,-2.658932498889044e-05,-1.6141464584507048e-05,0.1308584958314895,-9.708226203918455,-0.1778735220432281
0.9499301910400391,-0.0017356002936139,0.0034640692174434,0.0034745170269161,0.1511658579111099,-9.72642707824707,-0.1378554105758667
0.9550013542175293,9.72897032625042e-06,-2.658932498889044e-05,0.0034745170269161,0.1315196603536605,-9.706048011779783,-0.1178867518901825
0.9600734710693359,-0.0017356002936139,0.0034640692174434,-1.6141464584507048e-05,0.1309948116540908,-9.688237190246582,-0.1774738430976867
0.9651443958282471,-0.0052262586541473,0.0034640692174434,-1.6141464584507048e-05,0.0912934690713882,-9.707443237304688,-0.1387355029582977
0.9702169895172119,9.72897032625042e-06,0.0034640692174434,0.0034745170269161,0.1312992721796035,-9.70677375793457,-0.1378823220729828
0.9752883911132812,-0.0017356002936139,-2.658932498889044e-05,0.0017291877884417,0.1113486140966415,-9.66785717010498,-0.1575051546096801
0.9803597927093506,-0.0017356002936139,0.0034640692174434,-1.6141464584507048e-05,0.1307744234800338,-9.688963890075684,-0.1974694430828094
0.9854321479797363,9.72897032625042e-06,0.0034640692174434,0.0017291877884417,0.1515225619077682,-9.70571231842041,-0.117460161447525
0.9905037879943848,-0.0017356002936139,0.0017187398625537,-1.6141464584507048e-05,0.1107192784547805,-9.72854995727539,-0.178699791431427
0.9955751895904541,9.72897032625042e-06,0.0034640692174434,-1.6141464584507048e-05,0.1511658579111099,-9.72642707824707,-0.1378554105758667
1.0006475448608398,9.72897032625042e-06,0.0034640692174434,-1.6141464584507048e-05,0.1310788840055465,-9.707500457763672,-0.1578779071569442
1.0057191848754883,-0.003480929415673,0.0034640692174434,0.0034745170269161,0.1513021737337112,-9.706438064575195,-0.1374557316303253
1.010791301727295,9.72897032625042e-06,0.0017187398625537,-1.6141464584507048e-05,0.1515748053789138,-9.666460037231444,-0.1366563886404037
1.0158638954162598,-0.0017356002936139,-2.658932498889044e-05,-1.6141464584507048e-05,0.0912093967199325,-9.688180923461914,-0.158331423997879
1.0209357738494873,9.72897032625042e-06,0.0017187398625537,-1.6141464584507048e-05,0.1111600548028945,-9.727097511291504,-0.1387085914611816
1.0260074138641357,9.72897032625042e-06,-2.658932498889044e-05,-1.6141464584507048e-05,0.1512181013822555,-9.687175750732422,-0.1570516526699066
1.0310804843902588,9.72897032625042e-06,-2.658932498889044e-05,-1.6141464584507048e-05,0.1509454697370529,-9.727153778076172,-0.1578509956598281
1.0361526012420654,9.72897032625042e-06,-2.658932498889044e-05,0.0034745170269161,0.1310788840055465,-9.707500457763672,-0.1578779071569442
1.041224479675293,9.72897032625042e-06,-2.658932498889044e-05,-1.6141464584507048e-05,0.1510817855596542,-9.707164764404297,-0.1574513167142868
1.0462977886199951,9.72897032625042e-06,-2.658932498889044e-05,0.0034745170269161,0.1315196603536605,-9.706048011779783,-0.1178867518901825
1.0513699054718018,9.72897032625042e-06,-2.658932498889044e-05,0.0017291877884417,0.1512181013822555,-9.687175750732422,-0.1570516526699066
1.0564420223236084,-0.0017356002936139,0.0034640692174434,-1.6141464584507048e-05,0.1109396666288375,-9.727824211120604,-0.1587041765451431
1.0615153312683105,9.72897032625042e-06,0.0017187398625537,-1.6141464584507048e-05,0.1307221800088882,-9.728215217590332,-0.1782732009887695
1.0665879249572754,9.72897032625042e-06,-0.0017719186143949,0.0034745170269161,0.1113486140966415,-9.66785717010498,-0.1575051546096801
1.071660041809082,-0.003480929415673,0.0017187398625537,0.0017291877884417,0.1310788840055465,-9.707500457763672,-0.1578779071569442
1.0767335891723633,9.72897032625042e-06,-2.658932498889044e-05,0.0017291877884417,0.1114326864480972,-9.687119483947754,-0.13790924847126
1.0818061828613281,9.72897032625042e-06,0.0034640692174434,0.0017291877884417,0.1314355880022049,-9.686784744262695,-0.1374826580286026
1.0868785381317139,9.72897032625042e-06,0.0017187398625537,-0.0035067999269813,0.1114326864480972,-9.687119483947754,-0.13790924847126
1.0919523239135742,9.72897032625042e-06,0.0052093984559178,0.0017291877884417,0.1512181013822555,-9.687175750732422,-0.1570516526699066
1.097024917602539,0.0017550581833347,0.0034640692174434,0.0034745170269161,0.1510817855596542,-9.707164764404297,-0.1574513167142868
1.102097511291504,-0.0052262586541473,-2.658932498889044e-05,-1.6141464584507048e-05,0.1515225619077682,-9.70571231842041,-0.117460161447525
1.1071715354919434,9.72897032625042e-06,0.0017187398625537,-1.6141464584507048e-05,0.1308584958314895,-9.708226203918455,-0.1778735220432281
1.1122446060180664,-0.003480929415673,0.0034640692174434,0.0017291877884417,0.1313515156507492,-9.667522430419922,-0.1570785641670227
1.1173171997070312,9.72897032625042e-06,-2.658932498889044e-05,0.0017291877884417,0.1511658579111099,-9.72642707824707,-0.1378554105758667
1.1223909854888916,-0.0017356002936139,-2.658932498889044e-05,-1.6141464584507048e-05,0.1513021737337112,-9.706438064575195,-0.1374557316303253
1.1274640560150146,9.72897032625042e-06,0.0017187398625537,0.0034745170269161,0.1308584958314895,-9.708226203918455,-0.1778735220432281
1.1325383186340332,-0.003480929415673,-2.658932498889044e-05,0.0017291877884417,0.0910730808973312,-9.708169937133787,-0.1587310880422592
1.1376113891601562,-0.0017356002936139,-2.658932498889044e-05,-1.6141464584507048e-05,0.1308584958314895,-9.708226203918455,-0.1778735220432281
1.1426844596862793,9.72897032625042e-06,0.0034640692174434,0.0034745170269161,0.1509454697370529,-9.727153778076172,-0.1578509956598281
1.1477587223052979,9.72897032625042e-06,0.0017187398625537,0.0017291877884417,0.1310788840055465,-9.707500457763672,-0.1578779071569442
1.15283203125,0.0017550581833347,0.0034640692174434,0.0034745170269161,0.1112122982740402,-9.687846183776855,-0.1579048335552215
1.1579055786132812,-0.0052262586541473,0.0034640692174434,0.0017291877884417,0.1112122982740402,-9.687846183776855,-0.1579048335552215
1.1629796028137207,-0.0017356002936139,-2.658932498889044e-05,-1.6141464584507048e-05,0.1714414060115814,-9.686114311218262,-0.1366294920444488
1.168053388595581,-0.003480929415673,-2.658932498889044e-05,-1.6141464584507048e-05,0.1114326864480972,-9.687119483947754,-0.13790924847126
1.1731269359588623,-0.003480929415673,-2.658932498889044e-05,0.0017291877884417,0.1517429500818252,-9.704985618591309,-0.0974645763635635
1.1782011985778809,-0.0017356002936139,-2.658932498889044e-05,0.0017291877884417,0.1510295569896698,-9.746416091918944,-0.138255089521408
1.1832749843597412,-0.003480929415673,-2.658932498889044e-05,-1.6141464584507048e-05,0.1310788840055465,-9.707500457763672,-0.1578779071569442
1.1883490085601807,9.72897032625042e-06,-0.003517247736454,-1.6141464584507048e-05,0.0906323045492172,-9.709622383117676,-0.1987222731113433
1.1934235095977783,9.72897032625042e-06,0.0017187398625537,-1.6141464584507048e-05,0.1316559761762619,-9.68605899810791,-0.1174870878458023
1.1984972953796387,9.72897032625042e-06,0.0017187398625537,0.0017291877884417,0.1117371469736099,-9.705656051635742,-0.0983177572488784
1.203571081161499,9.72897032625042e-06,-2.658932498889044e-05,-0.0017614706885069,0.1114326864480972,-9.687119483947754,-0.13790924847126
1.2086448669433594,9.72897032625042e-06,0.0052093984559178,-0.0017614706885069,0.1312992721796035,-9.70677375793457,-0.1378823220729828
1.2137196063995361,0.0017550581833347,-2.658932498889044e-05,-1.6141464584507048e-05,0.1513862460851669,-9.725701332092283,-0.1178598403930664
1.2187950611114502,-0.003480929415673,0.0017187398625537,0.0052198460325598,0.0910208374261856,-9.747421264648438,-0.1395348608493805
1.2238690853118896,-0.0017356002936139,-2.658932498889044e-05,-1.6141464584507048e-05,0.1507250815629959,-9.727879524230955,-0.177846610546112
1.2289433479309082,9.72897032625042e-06,0.0034640692174434,0.0017291877884417,0.1510817855596542,-9.707164764404297,-0.1574513167142868
1.2340176105499268,-0.0017356002936139,-2.658932498889044e-05,-1.6141464584507048e-05,0.1314674317836761,-9.745299339294434,-0.0986905246973037
1.2390928268432617,-0.003480929415673,0.0017187398625537,-1.6141464584507048e-05,0.1513021737337112,-9.706438064575195,-0.1374557316303253
1.2441668510437012,-0.003480929415673,-0.0017719186143949,0.0017291877884417,0.1111282259225845,-9.668582916259766,-0.1775007545948028
1.2492413520812988,9.72897032625042e-06,0.0017187398625537,0.0017291877884417,0.1312992721796035,-9.70677375793457,-0.1378823220729828
1.254316806793213,9.72897032625042e-06,-2.658932498889044e-05,-1.6141464584507048e-05,0.1313833445310592,-9.72603702545166,-0.1182864308357238
1.2593913078308105,9.72897032625042e-06,0.0017187398625537,-1.6141464584507048e-05,0.1308584958314895,-9.708226203918455,-0.1778735220432281
1.2644658088684082,9.72897032625042e-06,-2.658932498889044e-05,-1.6141464584507048e-05,0.1114326864480972,-9.687119483947754,-0.13790924847126
1.2695415019989014,-0.003480929415673,-0.0017719186143949,0.0034745170269161,0.1310788840055465,-9.707500457763672,-0.1578779071569442
1.274616003036499,-0.0017356002936139,0.0017187398625537,0.0017291877884417,0.1114326864480972,-9.687119483947754,-0.13790924847126
1.2796907424926758,-0.0017356002936139,-2.658932498889044e-05,-1.6141464584507048e-05,0.1117893904447555,-9.666404724121094,-0.1175139993429184
1.284766435623169,-0.0017356002936139,0.0052093984559178,-1.6141464584507048e-05,0.1315196603536605,-9.706048011779783,-0.1178867518901825
1.2898411750793457,9.72897032625042e-06,0.0034640692174434,0.0017291877884417,0.1311629563570022,-9.726762771606444,-0.1382820010185241
1.2949161529541016,-0.0017356002936139,-2.658932498889044e-05,-1.6141464584507048e-05,0.1311629563570022,-9.726762771606444,-0.1382820010185241
1.2999920845031738,-0.0052262586541473,0.0034640692174434,-1.6141464584507048e-05,0.1512181013822555,-9.687175750732422,-0.1570516526699066
1.3050670623779297,9.72897032625042e-06,-2.658932498889044e-05,-0.0017614706885069,0.1317082196474075,-9.646806716918944,-0.1366833001375198
1.3101420402526855,9.72897032625042e-06,0.0034640692174434,-1.6141464584507048e-05,0.1315719038248062,-9.66679573059082,-0.1370829790830612
1.315218210220337,9.72897032625042e-06,-2.658932498889044e-05,-1.6141464584507048e-05,0.1312992721796035,-9.70677375793457,-0.1378823220729828
1.3202931880950928,9.72897032625042e-06,-2.658932498889044e-05,-1.6141464584507048e-05,0.1309425681829452,-9.727489471435549,-0.1582775861024856
1.3253684043884277,-0.003480929415673,-0.0017719186143949,0.0034745170269161,0.1111600548028945,-9.727097511291504,-0.1387085914611816
1.3304448127746582,0.0017550581833347,-0.0017719186143949,-1.6141464584507048e-05,0.1308062672615051,-9.747478485107422,-0.158677265048027
1.3355202674865723,9.72897032625042e-06,0.0017187398625537,0.0052198460325598,0.1708643138408661,-9.707555770874023,-0.1770203411579132
1.3405964374542236,9.72897032625042e-06,0.0034640692174434,-1.6141464584507048e-05,0.1114326864480972,-9.687119483947754,-0.13790924847126
1.3456718921661377,9.72897032625042e-06,-2.658932498889044e-05,0.0017291877884417,0.1313515156507492,-9.667522430419922,-0.1570785641670227
1.3507475852966309,9.72897032625042e-06,-2.658932498889044e-05,-1.6141464584507048e-05,0.1513021737337112,-9.706438064575195,-0.1374557316303253
1.355823040008545,9.72897032625042e-06,0.0017187398625537,-1.6141464584507048e-05,0.1311629563570022,-9.726762771606444,-0.1382820010185241
1.3608996868133545,9.72897032625042e-06,-2.658932498889044e-05,-1.6141464584507048e-05,0.1711687743663787,-9.726092338562012,-0.1374288350343704
1.3659753799438477,-0.0017356002936139,-2.658932498889044e-05,0.0017291877884417,0.1311629563570022,-9.726762771606444,-0.1382820010185241
1.3710520267486572,9.72897032625042e-06,0.0034640692174434,0.0052198460325598,0.1312992721796035,-9.70677375793457,-0.1378823220729828
1.3761277198791504,-0.0017356002936139,0.0017187398625537,0.0017291877884417,0.1114326864480972,-9.687119483947754,-0.13790924847126
1.3812036514282227,-0.003480929415673,0.0034640692174434,0.0017291877884417,0.1114326864480972,-9.687119483947754,-0.13790924847126
1.3862805366516113,9.72897032625042e-06,-2.658932498889044e-05,-1.6141464584507048e-05,0.1312151998281479,-9.687511444091797,-0.1574782431125641
1.3913564682006836,-0.003480929415673,0.0017187398625537,0.0017291877884417,0.1512181013822555,-9.687175750732422,-0.1570516526699066
1.3964323997497559,9.72897032625042e-06,-2.658932498889044e-05,-1.6141464584507048e-05,0.1311629563570022,-9.726762771606444,-0.1382820010185241
1.4015095233917236,9.72897032625042e-06,-2.658932498889044e-05,-0.0017614706885069,0.1709483861923217,-9.726819038391112,-0.1574244201183319
1.406585454940796,9.72897032625042e-06,-2.658932498889044e-05,-1.6141464584507048e-05,0.1506728529930114,-9.767131805419922,-0.1586503535509109
1.4116616249084473,0.0017550581833347,-2.658932498889044e-05,-0.0017614706885069,0.1309948116540908,-9.688237190246582,-0.1774738430976867
1.4167389869689941,-0.003480929415673,0.0034640692174434,-1.6141464584507048e-05,0.1517111212015152,-9.64647102355957,-0.1362567096948623
1.4218151569366455,-0.0017356002936139,0.0034640692174434,0.0034745170269161,0.1117893904447555,-9.666404724121094,-0.1175139993429184
1.426891803741455,0.0017550581833347,0.0034640692174434,0.0017291877884417,0.1313515156507492,-9.667522430419922,-0.1570785641670227
1.4319689273834229,9.72897032625042e-06,-2.658932498889044e-05,-0.0017614706885069,0.1317400485277176,-9.705321311950684,-0.097891166806221
1.4370453357696533,9.72897032625042e-06,0.0017187398625537,0.0017291877884417,0.1112441271543502,-9.746360778808594,-0.1191127002239227
1.4421217441558838,-0.0017356002936139,-0.0017719186143949,-1.6141464584507048e-05,0.1309425681829452,-9.727489471435549,-0.1582775861024856
1.4471993446350098,-0.0017356002936139,0.0017187398625537,-1.6141464584507048e-05,0.1307221800088882,-9.728215217590332,-0.1782732009887695
1.4522759914398193,9.72897032625042e-06,0.0052093984559178,-1.6141464584507048e-05,0.1313515156507492,-9.667522430419922,-0.1570785641670227
1.4573523998260498,-0.0017356002936139,0.0017187398625537,0.0034745170269161,0.1112963706254959,-9.707108497619627,-0.1383089125156402
1.462430477142334,-0.0017356002936139,-2.658932498889044e-05,-0.0017614706885069,0.1513544172048568,-9.667186737060549,-0.1566519737243652
1.4675071239471436,9.72897032625042e-06,0.0017187398625537,-1.6141464584507048e-05,0.1110759824514389,-9.70783519744873,-0.1583044975996017
1.4725840091705322,-0.0017356002936139,-2.658932498889044e-05,-1.6141464584507048e-05,0.1511658579111099,-9.72642707824707,-0.1378554105758667
1.4776618480682373,-0.0017356002936139,-2.658932498889044e-05,0.0034745170269161,0.1510295569896698,-9.746416091918944,-0.138255089521408
1.482738733291626,9.72897032625042e-06,0.0052093984559178,-1.6141464584507048e-05,0.1310788840055465,-9.707500457763672,-0.1578779071569442
1.4878158569335938,9.72897032625042e-06,0.0017187398625537,-1.6141464584507048e-05,0.1114326864480972,-9.687119483947754,-0.13790924847126
1.492893934249878,9.72897032625042e-06,-2.658932498889044e-05,0.0034745170269161,0.1520155817270279,-9.66500759124756,-0.0966652333736419
1.4979708194732666,-0.0017356002936139,0.0034640692174434,-1.6141464584507048e-05,0.1516270488500595,-9.627208709716797,-0.1558526158332824
1.5030481815338135,9.72897032625042e-06,-2.658932498889044e-05,-1.6141464584507048e-05,0.1115167587995529,-9.706382751464844,-0.1183133423328399
1.5081264972686768,9.72897032625042e-06,-2.658932498889044e-05,-1.6141464584507048e-05,0.1310788840055465,-9.707500457763672,-0.1578779071569442
1.5132038593292236,-0.0017356002936139,0.0034640692174434,-1.6141464584507048e-05,0.1109396666288375,-9.727824211120604,-0.1587041765451431
1.5182809829711914,-0.0017356002936139,-2.658932498889044e-05,0.0017291877884417,0.1309425681829452,-9.727489471435549,-0.1582775861024856
1.5233592987060547,-0.0017356002936139,0.0017187398625537,-1.6141464584507048e-05,0.1110759824514389,-9.70783519744873,-0.1583044975996017
1.5284368991851807,9.72897032625042e-06,0.0034640692174434,-1.6141464584507048e-05,0.1312151998281479,-9.687511444091797,-0.1574782431125641
1.533515214920044,-0.0052262586541473,-2.658932498889044e-05,-1.6141464584507048e-05,0.1309948116540908,-9.688237190246582,-0.1774738430976867
1.538593053817749,9.72897032625042e-06,0.0034640692174434,-1.6141464584507048e-05,0.1317922919988632,-9.666069984436035,-0.1170874089002609
1.543670654296875,-0.003480929415673,0.0034640692174434,-1.6141464584507048e-05,0.1114326864480972,-9.687119483947754,-0.13790924847126
1.5487492084503174,9.72897032625042e-06,-2.658932498889044e-05,-1.6141464584507048e-05,0.1309425681829452,-9.727489471435549,-0.1582775861024856
1.5538270473480225,9.72897032625042e-06,0.0034640692174434,-1.6141464584507048e-05,0.1513544172048568,-9.667186737060549,-0.1566519737243652
1.5589046478271484,-0.003480929415673,0.0034640692174434,0.0017291877884417,0.1312992721796035,-9.70677375793457,-0.1378823220729828
1.5639827251434326,9.72897032625042e-06,0.0052093984559178,-1.6141464584507048e-05,0.1513021737337112,-9.706438064575195,-0.1374557316303253
1.569061517715454,9.72897032625042e-06,0.0034640692174434,-1.6141464584507048e-05,0.1112122982740402,-9.687846183776855,-0.1579048335552215
1.5741395950317383,-0.003480929415673,-2.658932498889044e-05,0.0017291877884417,0.1514384895563125,-9.68644905090332,-0.1370560675859451
1.5792183876037598,-0.0017356002936139,0.0017187398625537,-1.6141464584507048e-05,0.1115690022706985,-9.66713047027588,-0.1375095695257187
1.584296464920044,9.72897032625042e-06,0.0034640692174434,-1.6141464584507048e-05,0.1308584958314895,-9.708226203918455,-0.1778735220432281
1.5893747806549072,9.72897032625042e-06,0.0034640692174434,-1.6141464584507048e-05,0.1112122982740402,-9.687846183776855,-0.1579048335552215
1.594454050064087,9.72897032625042e-06,0.0034640692174434,-1.6141464584507048e-05,0.1109396666288375,-9.727824211120604,-0.1587041765451431
1.599532127380371,-0.0017356002936139,0.0017187398625537,-1.6141464584507048e-05,0.1114326864480972,-9.687119483947754,-0.13790924847126
1.6046104431152344,-0.0017356002936139,-2.658932498889044e-05,0.0017291877884417,0.1312992721796035,-9.70677375793457,-0.1378823220729828
1.6096901893615723,9.72897032625042e-06,-2.658932498889044e-05,0.0017291877884417,0.1313515156507492,-9.667522430419922,-0.1570785641670227
1.6147682666778564,-0.003480929415673,-2.658932498889044e-05,-1.6141464584507048e-05,0.1314355880022049,-9.686784744262695,-0.1374826580286026
1.6198465824127197,9.72897032625042e-06,0.0034640692174434,-1.6141464584507048e-05,0.1509454697370529,-9.727153778076172,-0.1578509956598281
1.6249263286590576,9.72897032625042e-06,-2.658932498889044e-05,0.0017291877884417,0.1308062672615051,-9.747478485107422,-0.158677265048027
1.6300048828125,-0.0017356002936139,0.0034640692174434,-1.6141464584507048e-05,0.1109396666288375,-9.727824211120604,-0.1587041765451431
1.6350831985473633,9.72897032625042e-06,-2.658932498889044e-05,0.0017291877884417,0.1110237389802932,-9.74708652496338,-0.139108270406723
1.6401631832122803,-0.003480929415673,-2.658932498889044e-05,-1.6141464584507048e-05,0.1111600548028945,-9.727097511291504,-0.1387085914611816
1.6452422142028809,0.0017550581833347,-0.0017719186143949,0.0034745170269161,0.1112122982740402,-9.687846183776855,-0.1579048335552215
1.6503210067749023,-0.0017356002936139,-2.658932498889044e-05,-1.6141464584507048e-05,0.1511658579111099,-9.72642707824707,-0.1378554105758667
1.6554005146026611,9.72897032625042e-06,0.0017187398625537,-1.6141464584507048e-05,0.1312992721796035,-9.70677375793457,-0.1378823220729828
1.6604795455932617,9.72897032625042e-06,-2.658932498889044e-05,0.0017291877884417,0.1305017918348312,-9.728941917419434,-0.1982687711715698
1.6655585765838623,9.72897032625042e-06,0.0034640692174434,0.0017291877884417,0.1510817855596542,-9.707164764404297,-0.1574513167142868
1.6706385612487793,9.72897032625042e-06,-0.003517247736454,-1.6141464584507048e-05,0.1309425681829452,-9.727489471435549,-0.1582775861024856
1.6757175922393799,9.72897032625042e-06,-2.658932498889044e-05,-1.6141464584507048e-05,0.1312151998281479,-9.687511444091797,-0.1574782431125641
1.6807968616485596,-0.003480929415673,-2.658932498889044e-05,-1.6141464584507048e-05,0.1516588777303695,-9.685723304748535,-0.1170604974031448
1.6858768463134766,9.72897032625042e-06,-2.658932498889044e-05,-1.6141464584507048e-05,0.1317922919988632,-9.666069984436035,-0.1170874089002609
1.6909565925598145,-0.003480929415673,0.0017187398625537,-1.6141464584507048e-05,0.1314355880022049,-9.686784744262695,-0.1374826580286026
1.696035623550415,9.72897032625042e-06,0.0017187398625537,-1.6141464584507048e-05,0.1116008311510086,-9.725645065307615,-0.0987174361944198
1.701115608215332,-0.0017356002936139,-2.658932498889044e-05,-1.6141464584507048e-05,0.1110759824514389,-9.70783519744873,-0.1583044975996017
1.70619535446167,9.72897032625042e-06,0.0017187398625537,-1.6141464584507048e-05,0.1310788840055465,-9.707500457763672,-0.1578779071569442
1.7112748622894287,-0.003480929415673,-2.658932498889044e-05,-1.6141464584507048e-05,0.1109396666288375,-9.727824211120604,-0.1587041765451431
1.716355323791504,9.72897032625042e-06,0.0052093984559178,0.0034745170269161,0.1309948116540908,-9.688237190246582,-0.1774738430976867
1.7214350700378418,9.72897032625042e-06,0.0017187398625537,-1.6141464584507048e-05,0.1311629563570022,-9.726762771606444,-0.1382820010185241
1.7265145778656006,9.72897032625042e-06,0.0034640692174434,0.0017291877884417,0.1110759824514389,-9.70783519744873,-0.1583044975996017
1.7315952777862549,9.72897032625042e-06,0.0017187398625537,-1.6141464584507048e-05,0.1513862460851669,-9.725701332092283,-0.1178598403930664
1.7366750240325928,9.72897032625042e-06,0.0052093984559178,0.0034745170269161,0.1305858790874481,-9.748204231262209,-0.1786728799343109
1.7417550086975098,9.72897032625042e-06,0.0017187398625537,-1.6141464584507048e-05,0.1509977132081985,-9.687901496887209,-0.1770472526550293
1.746835708618164,-0.003480929415673,-2.658932498889044e-05,-1.6141464584507048e-05,0.1308584958314895,-9.708226203918455,-0.1778735220432281
1.751915693283081,9.72897032625042e-06,0.0034640692174434,-1.6141464584507048e-05,0.1512181013822555,-9.687175750732422,-0.1570516526699066
1.7569952011108398,-0.0017356002936139,-2.658932498889044e-05,-1.6141464584507048e-05,0.1312674432992935,-9.648259162902832,-0.176674485206604
1.7620763778686523,9.72897032625042e-06,0.0052093984559178,0.0052198460325598,0.1110759824514389,-9.70783519744873,-0.1583044975996017
1.7671566009521484,-0.0017356002936139,0.0034640692174434,-1.6141464584507048e-05,0.1513021737337112,-9.706438064575195,-0.1374557316303253
1.7722370624542236,9.72897032625042e-06,-2.658932498889044e-05,0.0017291877884417,0.1313833445310592,-9.72603702545166,-0.1182864308357238
1.777318000793457,-0.0017356002936139,0.0034640692174434,-1.6141464584507048e-05,0.1508091688156128,-9.747142791748049,-0.1582506746053695
1.7823984622955322,9.72897032625042e-06,-2.658932498889044e-05,-1.6141464584507048e-05,0.1513021737337112,-9.706438064575195,-0.1374557316303253
1.7874796390533447,9.72897032625042e-06,0.0017187398625537,-1.6141464584507048e-05,0.1116530746221542,-9.686393737792969,-0.1179136782884597
1.79256010055542,-0.0017356002936139,-2.658932498889044e-05,-1.6141464584507048e-05,0.1511340290307998,-9.667912483215332,-0.1766475737094879
1.7976405620574951,-0.0017356002936139,-2.658932498889044e-05,-0.0017614706885069,0.1506410092115402,-9.708617210388184,-0.1974425017833709
1.8027222156524658,9.72897032625042e-06,0.0017187398625537,0.0017291877884417,0.1312992721796035,-9.70677375793457,-0.1378823220729828
1.8077921867370605,-0.0017356002936139,0.0017187398625537,-1.6141464584507048e-05,0.1305858790874481,-9.748204231262209,-0.1786728799343109
1.8128085136413574,9.72897032625042e-06,-2.658932498889044e-05,-1.6141464584507048e-05,0.1308062672615051,-9.747478485107422,-0.158677265048027
1.8178160190582275,9.72897032625042e-06,-2.658932498889044e-05,-1.6141464584507048e-05,0.1308062672615051,-9.747478485107422,-0.158677265048027
1.8228225708007812,-0.003480929415673,-2.658932498889044e-05,-1.6141464584507048e-05,0.1314355880022049,-9.686784744262695,-0.1374826580286026
1.827829122543335,9.72897032625042e-06,-2.658932498889044e-05,-1.6141464584507048e-05,0.1108555942773819,-9.708560943603516,-0.1783001124858856
1.832836389541626,-0.0017356002936139,-2.658932498889044e-05,0.0017291877884417,0.1512181013822555,-9.687175750732422,-0.1570516526699066
1.8378427028656006,9.72897032625042e-06,-2.658932498889044e-05,0.0034745170269161,0.1316559761762619,-9.68605899810791,-0.1174870878458023
1.8428492546081543,-0.0052262586541473,-2.658932498889044e-05,-1.6141464584507048e-05,0.1315196603536605,-9.706048011779783,-0.1178867518901825
1.8478569984436035,9.72897032625042e-06,0.0017187398625537,0.0017291877884417,0.1115167587995529,-9.706382751464844,-0.1183133423328399
1.852863073348999,-0.0017356002936139,-2.658932498889044e-05,-1.6141464584507048e-05,0.1111600548028945,-9.727097511291504,-0.1387085914611816
1.8578693866729736,9.72897032625042e-06,0.0034640692174434,0.0034745170269161,0.1510817855596542,-9.707164764404297,-0.1574513167142868
1.8628768920898438,9.72897032625042e-06,0.0017187398625537,0.0017291877884417,0.1117893904447555,-9.666404724121094,-0.1175139993429184
1.8678832054138184,9.72897032625042e-06,-2.658932498889044e-05,-1.6141464584507048e-05,0.1114326864480972,-9.687119483947754,-0.13790924847126
1.872889518737793,9.72897032625042e-06,-2.658932498889044e-05,0.0017291877884417,0.1506410092115402,-9.708617210388184,-0.1974425017833709
1.877897024154663,9.72897032625042e-06,0.0034640692174434,-1.6141464584507048e-05,0.1115167587995529,-9.706382751464844,-0.1183133423328399
1.8829033374786377,-0.0017356002936139,-0.0017719186143949,-1.6141464584507048e-05,0.1105829626321792,-9.748538970947266,-0.1790994703769683
1.8879098892211914,-0.003480929415673,0.0034640692174434,-1.6141464584507048e-05,0.1309425681829452,-9.727489471435549,-0.1582775861024856
1.8929171562194824,-0.0017356002936139,0.0017187398625537,0.0034745170269161,0.1515225619077682,-9.70571231842041,-0.117460161447525
1.897923469543457,-0.0017356002936139,-2.658932498889044e-05,-1.6141464584507048e-05,0.1314355880022049,-9.686784744262695,-0.1374826580286026
1.9029309749603271,9.72897032625042e-06,-2.658932498889044e-05,0.0052198460325598,0.1513021737337112,-9.706438064575195,-0.1374557316303253
1.9079372882843018,-0.0017356002936139,0.0034640692174434,-1.6141464584507048e-05,0.1514384895563125,-9.68644905090332,-0.1370560675859451
1.9129436016082764,-0.003480929415673,-0.003517247736454,-1.6141464584507048e-05,0.1314355880022049,-9.686784744262695,-0.1374826580286026
1.9179508686065674,9.72897032625042e-06,-2.658932498889044e-05,-1.6141464584507048e-05,0.1312992721796035,-9.70677375793457,-0.1378823220729828
1.922957181930542,-0.0017356002936139,-2.658932498889044e-05,0.0017291877884417,0.1312992721796035,-9.70677375793457,-0.1378823220729828
1.9279634952545166,9.72897032625042e-06,-2.658932498889044e-05,0.0017291877884417,0.1512181013822555,-9.687175750732422,-0.1570516526699066
1.9329710006713867,9.72897032625042e-06,0.0017187398625537,-1.6141464584507048e-05,0.1314355880022049,-9.686784744262695,-0.1374826580286026
1.9379773139953613,9.72897032625042e-06,-2.658932498889044e-05,0.0017291877884417,0.1512181013822555,-9.687175750732422,-0.1570516526699066
1.9429833889007568,9.72897032625042e-06,-2.658932498889044e-05,0.0017291877884417,0.1114326864480972,-9.687119483947754,-0.13790924847126
1.9479897022247314,-0.0017356002936139,-2.658932498889044e-05,-1.6141464584507048e-05,0.1313515156507492,-9.667522430419922,-0.1570785641670227
1.9529969692230225,9.72897032625042e-06,-2.658932498889044e-05,-1.6141464584507048e-05,0.1516588777303695,-9.685723304748535,-0.1170604974031448
1.958003282546997,-0.003480929415673,-2.658932498889044e-05,0.0017291877884417,0.1507250815629959,-9.727879524230955,-0.177846610546112
1.9630107879638672,-0.0017356002936139,0.0017187398625537,0.0017291877884417,0.1312151998281479,-9.687511444091797,-0.1574782431125641
1.9680168628692627,9.72897032625042e-06,0.0034640692174434,0.0017291877884417,0.1309425681829452,-9.727489471435549,-0.1582775861024856
1.9730231761932373,9.72897032625042e-06,0.0034640692174434,-1.6141464584507048e-05,0.1509977132081985,-9.687901496887209,-0.1770472526550293
1.978029489517212,9.72897032625042e-06,-2.658932498889044e-05,0.0017291877884417,0.1512703448534011,-9.647923469543455,-0.1762478947639465
1.983036994934082,9.72897032625042e-06,0.0017187398625537,0.0017291877884417,0.1308584958314895,-9.708226203918455,-0.1778735220432281
1.9880428314208984,-0.003480929415673,0.0034640692174434,0.0017291877884417,0.1310788840055465,-9.707500457763672,-0.1578779071569442
1.9930503368377686,9.72897032625042e-06,0.0017187398625537,0.0052198460325598,0.1309425681829452,-9.727489471435549,-0.1582775861024856
1.998056411743164,-0.003480929415673,0.0017187398625537,-1.6141464584507048e-05,0.1311629563570022,-9.726762771606444,-0.1382820010185241
2.0030627250671387,9.72897032625042e-06,0.0017187398625537,-1.6141464584507048e-05,0.1314355880022049,-9.686784744262695,-0.1374826580286026
2.0080699920654297,-0.0017356002936139,0.0017187398625537,-1.6141464584507048e-05,0.1317922919988632,-9.666069984436035,-0.1170874089002609
2.013076066970825,-0.0017356002936139,0.0034640692174434,-1.6141464584507048e-05,0.1313515156507492,-9.667522430419922,-0.1570785641670227
2.0180823802948,9.72897032625042e-06,-2.658932498889044e-05,0.0017291877884417,0.1116530746221542,-9.686393737792969,-0.1179136782884597
2.023089647293091,-0.0017356002936139,0.0034640692174434,0.0034745170269161,0.1316559761762619,-9.68605899810791,-0.1174870878458023
2.0280961990356445,9.72897032625042e-06,0.0034640692174434,-1.6141464584507048e-05,0.1309425681829452,-9.727489471435549,-0.1582775861024856
2.033102035522461,-0.0017356002936139,0.0034640692174434,-1.6141464584507048e-05,0.1305858790874481,-9.748204231262209,-0.1786728799343109
2.038109302520752,9.72897032625042e-06,0.0034640692174434,0.0034745170269161,0.1507250815629959,-9.727879524230955,-0.177846610546112
2.0431153774261475,-0.0017356002936139,0.0034640692174434,0.0017291877884417,0.1117893904447555,-9.666404724121094,-0.1175139993429184
2.048121452331543,-0.0017356002936139,0.0017187398625537,-1.6141464584507048e-05,0.1318763643503189,-9.685332298278809,-0.0974915027618408
2.053128957748413,9.72897032625042e-06,-2.658932498889044e-05,-1.6141464584507048e-05,0.1309948116540908,-9.688237190246582,-0.1774738430976867
2.0581350326538086,-0.003480929415673,0.0017187398625537,0.0017291877884417,0.1306381076574325,-9.70895290374756,-0.1978690922260284
2.063141107559204,-0.003480929415673,-2.658932498889044e-05,-1.6141464584507048e-05,0.1309425681829452,-9.727489471435549,-0.1582775861024856
2.068148612976074,-0.0017356002936139,-2.658932498889044e-05,0.0017291877884417,0.1309425681829452,-9.727489471435549,-0.1582775861024856
2.0731544494628906,9.72897032625042e-06,0.0034640692174434,-1.6141464584507048e-05,0.1507250815629959,-9.727879524230955,-0.177846610546112
2.078160524368286,9.72897032625042e-06,0.0052093984559178,-1.6141464584507048e-05,0.1305017918348312,-9.728941917419434,-0.1982687711715698
2.0831680297851562,-0.0017356002936139,-2.658932498889044e-05,0.0017291877884417,0.1314355880022049,-9.686784744262695,-0.1374826580286026
2.0881741046905518,0.0017550581833347,0.0052093984559178,-0.0017614706885069,0.1517951935529709,-9.66573429107666,-0.1166608184576034
2.0931801795959473,9.72897032625042e-06,-2.658932498889044e-05,-1.6141464584507048e-05,0.1312151998281479,-9.687511444091797,-0.1574782431125641
2.098187208175659,-0.0017356002936139,-2.658932498889044e-05,-1.6141464584507048e-05,0.1111600548028945,-9.727097511291504,-0.1387085914611816
2.1031932830810547,9.72897032625042e-06,0.0034640692174434,-0.0017614706885069,0.1310266554355621,-9.74675178527832,-0.1386816799640655
2.10819935798645,9.72897032625042e-06,0.0017187398625537,0.0017291877884417,0.1307540237903595,-9.78672981262207,-0.1394810378551483
2.113206386566162,9.72897032625042e-06,-0.003517247736454,0.0017291877884417,0.1315196603536605,-9.706048011779783,-0.1178867518901825
2.118212938308716,9.72897032625042e-06,0.0017187398625537,-1.6141464584507048e-05,0.1513021737337112,-9.706438064575195,-0.1374557316303253
2.123220205307007,9.72897032625042e-06,0.0069547276943922,-1.6141464584507048e-05,0.1317922919988632,-9.666069984436035,-0.1170874089002609
2.1282260417938232,-0.0017356002936139,-0.0017719186143949,-1.6141464584507048e-05,0.1312151998281479,-9.687511444091797,-0.1574782431125641
2.1332321166992188,9.72897032625042e-06,0.0052093984559178,0.0034745170269161,0.1510817855596542,-9.707164764404297,-0.1574513167142868
2.1382391452789307,9.72897032625042e-06,-2.658932498889044e-05,-1.6141464584507048e-05,0.1513021737337112,-9.706438064575195,-0.1374557316303253
2.143245220184326,9.72897032625042e-06,0.0034640692174434,-0.0017614706885069,0.1112122982740402,-9.687846183776855,-0.1579048335552215
2.148251533508301,-0.0017356002936139,0.0034640692174434,0.0017291877884417,0.1108033508062362,-9.74781322479248,-0.1591038554906845
2.1532585620880127,9.72897032625042e-06,-2.658932498889044e-05,-1.6141464584507048e-05,0.1312151998281479,-9.687511444091797,-0.1574782431125641
2.158264398574829,-0.0017356002936139,-2.658932498889044e-05,-1.6141464584507048e-05,0.1313515156507492,-9.667522430419922,-0.1570785641670227
2.1632704734802246,-0.003480929415673,0.0034640692174434,0.0034745170269161,0.1517951935529709,-9.66573429107666,-0.1166608184576034
2.1682775020599365,9.72897032625042e-06,0.0034640692174434,-1.6141464584507048e-05,0.1309948116540908,-9.688237190246582,-0.1774738430976867
2.173283815383911,-0.0017356002936139,-2.658932498889044e-05,-1.6141464584507048e-05,0.1511658579111099,-9.72642707824707,-0.1378554105758667
2.1782896518707275,-0.003480929415673,0.0034640692174434,-1.6141464584507048e-05,0.1513862460851669,-9.725701332092283,-0.1178598403930664
2.1832969188690186,9.72897032625042e-06,0.0017187398625537,0.0017291877884417,0.1314674317836761,-9.745299339294434,-0.0986905246973037
2.188302993774414,-0.0017356002936139,-2.658932498889044e-05,-1.6141464584507048e-05,0.1316559761762619,-9.68605899810791,-0.1174870878458023
2.1933088302612305,9.72897032625042e-06,-2.658932498889044e-05,0.0017291877884417,0.1114326864480972,-9.687119483947754,-0.13790924847126
2.1983158588409424,9.72897032625042e-06,0.0017187398625537,0.0034745170269161,0.1512181013822555,-9.687175750732422,-0.1570516526699066
2.203321695327759,9.72897032625042e-06,-2.658932498889044e-05,-0.0017614706885069,0.1310788840055465,-9.707500457763672,-0.1578779071569442
2.2083277702331543,9.72897032625042e-06,0.0052093984559178,-1.6141464584507048e-05,0.1709483861923217,-9.726819038391112,-0.1574244201183319
2.213334798812866,9.72897032625042e-06,-2.658932498889044e-05,0.0052198460325598,0.1305858790874481,-9.748204231262209,-0.1786728799343109
2.2183408737182617,-0.003480929415673,0.0017187398625537,-1.6141464584507048e-05,0.1311629563570022,-9.726762771606444,-0.1382820010185241
2.2233469486236572,9.72897032625042e-06,-2.658932498889044e-05,-1.6141464584507048e-05,0.1116530746221542,-9.686393737792969,-0.1179136782884597
2.2283542156219482,9.72897032625042e-06,0.0034640692174434,-1.6141464584507048e-05,0.1517951935529709,-9.66573429107666,-0.1166608184576034
2.2333598136901855,9.72897032625042e-06,0.0017187398625537,0.0052198460325598,0.1306381076574325,-9.70895290374756,-0.1978690922260284
2.238365888595581,9.72897032625042e-06,0.0034640692174434,-1.6141464584507048e-05,0.1109396666288375,-9.727824211120604,-0.1587041765451431
2.243372678756714,9.72897032625042e-06,-2.658932498889044e-05,0.0017291877884417,0.1311629563570022,-9.726762771606444,-0.1382820010185241
2.2483789920806885,9.72897032625042e-06,0.0052093984559178,-1.6141464584507048e-05,0.1311629563570022,-9.726762771606444,-0.1382820010185241
2.253384828567505,9.72897032625042e-06,0.0017187398625537,-1.6141464584507048e-05,0.1110759824514389,-9.70783519744873,-0.1583044975996017
2.258391857147217,9.72897032625042e-06,0.0034640692174434,0.0034745170269161,0.1310266554355621,-9.74675178527832,-0.1386816799640655
2.263397693634033,9.72897032625042e-06,-2.658932498889044e-05,-1.6141464584507048e-05,0.1307221800088882,-9.728215217590332,-0.1782732009887695
2.2684035301208496,-0.0052262586541473,0.0017187398625537,-1.6141464584507048e-05,0.1514384895563125,-9.68644905090332,-0.1370560675859451
2.2734105587005615,9.72897032625042e-06,0.0017187398625537,-1.6141464584507048e-05,0.1510817855596542,-9.707164764404297,-0.1574513167142868
2.278416395187378,-0.0017356002936139,0.0034640692174434,0.0017291877884417,0.1110759824514389,-9.70783519744873,-0.1583044975996017
2.2834219932556152,9.72897032625042e-06,0.0034640692174434,-0.0035067999269813,0.1510817855596542,-9.707164764404297,-0.1574513167142868
2.2884294986724854,-0.003480929415673,0.0017187398625537,0.0017291877884417,0.1305540353059768,-9.689689636230469,-0.2174650132656097
2.2934353351593018,-0.003480929415673,-2.658932498889044e-05,0.0034745170269161,0.1312151998281479,-9.687511444091797,-0.1574782431125641
2.2984421253204346,9.72897032625042e-06,0.0034640692174434,0.0017291877884417,0.1517429500818252,-9.704985618591309,-0.0974645763635635
2.30344820022583,-0.0017356002936139,-2.658932498889044e-05,0.0034745170269161,0.1314355880022049,-9.686784744262695,-0.1374826580286026
2.3084540367126465,-0.003480929415673,-2.658932498889044e-05,-0.0035067999269813,0.1110759824514389,-9.70783519744873,-0.1583044975996017
2.3134608268737793,9.72897032625042e-06,-2.658932498889044e-05,-1.6141464584507048e-05,0.1518792659044265,-9.684996604919434,-0.0970649123191833
2.3184666633605957,9.72897032625042e-06,0.0017187398625537,-1.6141464584507048e-05,0.1111600548028945,-9.727097511291504,-0.1387085914611816
2.323472499847412,-0.003480929415673,-2.658932498889044e-05,0.0017291877884417,0.1508091688156128,-9.747142791748049,-0.1582506746053695
2.3284785747528076,9.72897032625042e-06,0.0034640692174434,0.0017291877884417,0.1113804429769516,-9.72637176513672,-0.1187130212783813
2.3334856033325195,9.72897032625042e-06,0.0034640692174434,-1.6141464584507048e-05,0.1309948116540908,-9.688237190246582,-0.1774738430976867
2.338491201400757,9.72897032625042e-06,0.0052093984559178,0.0017291877884417,0.1115690022706985,-9.66713047027588,-0.1375095695257187
2.3434972763061523,9.72897032625042e-06,-2.658932498889044e-05,-1.6141464584507048e-05,0.1312151998281479,-9.687511444091797,-0.1574782431125641
2.348504066467285,9.72897032625042e-06,-2.658932498889044e-05,-1.6141464584507048e-05,0.1515225619077682,-9.70571231842041,-0.117460161447525
2.3535099029541016,-0.003480929415673,-2.658932498889044e-05,0.0017291877884417,0.1512181013822555,-9.687175750732422,-0.1570516526699066
2.3585166931152344,9.72897032625042e-06,0.0034640692174434,0.0017291877884417,0.1306381076574325,-9.70895290374756,-0.1978690922260284
2.363523006439209,-0.0017356002936139,0.0017187398625537,0.0017291877884417,0.1508932411670684,-9.76640510559082,-0.1386547684669494
2.3685286045074463,0.0017550581833347,-2.658932498889044e-05,0.0017291877884417,0.1509454697370529,-9.727153778076172,-0.1578509956598281
2.373535394668579,9.72897032625042e-06,-2.658932498889044e-05,-1.6141464584507048e-05,0.1513021737337112,-9.706438064575195,-0.1374557316303253
2.3785412311553955,9.72897032625042e-06,0.0052093984559178,-0.0017614706885069,0.1316559761762619,-9.68605899810791,-0.1174870878458023
2.383546829223633,9.72897032625042e-06,0.0034640692174434,0.0017291877884417,0.1312992721796035,-9.70677375793457,-0.1378823220729828
2.3885536193847656,9.72897032625042e-06,0.0017187398625537,-1.6141464584507048e-05,0.1513862460851669,-9.725701332092283,-0.1178598403930664
2.393559455871582,9.72897032625042e-06,0.0017187398625537,-1.6141464584507048e-05,0.1312151998281479,-9.687511444091797,-0.1574782431125641
2.3985652923583984,-0.0052262586541473,0.0017187398625537,0.0017291877884417,0.1308584958314895,-9.708226203918455,-0.1778735220432281
2.4035723209381104,0.0017550581833347,0.0052093984559178,-1.6141464584507048e-05,0.1307221800088882,-9.728215217590332,-0.1782732009887695
2.4085781574249268,-0.0017356002936139,0.0017187398625537,-1.6141464584507048e-05,0.1314878314733505,-9.647533416748049,-0.1566788852214813
2.413583755493164,-0.0017356002936139,0.0017187398625537,-1.6141464584507048e-05,0.1312151998281479,-9.687511444091797,-0.1574782431125641
2.418590545654297,9.72897032625042e-06,0.0052093984559178,0.0017291877884417,0.1114326864480972,-9.687119483947754,-0.13790924847126
2.4235963821411133,9.72897032625042e-06,-2.658932498889044e-05,-1.6141464584507048e-05,0.1314355880022049,-9.686784744262695,-0.1374826580286026
2.4286019802093506,9.72897032625042e-06,0.0017187398625537,0.0017291877884417,0.1510295569896698,-9.746416091918944,-0.138255089521408
2.4336090087890625,9.72897032625042e-06,0.0017187398625537,-1.6141464584507048e-05,0.1508932411670684,-9.76640510559082,-0.1386547684669494
2.4386146068573,9.72897032625042e-06,-2.658932498889044e-05,-1.6141464584507048e-05,0.1710847020149231,-9.706830024719238,-0.1570247411727905
2.443620204925537,9.72897032625042e-06,-2.658932498889044e-05,-1.6141464584507048e-05,0.1710847020149231,-9.706830024719238,-0.1570247411727905
2.448627233505249,-0.003480929415673,0.0017187398625537,-1.6141464584507048e-05,0.1309425681829452,-9.727489471435549,-0.1582775861024856
2.4536328315734863,-0.0017356002936139,-2.658932498889044e-05,0.0017291877884417,0.1510817855596542,-9.707164764404297,-0.1574513167142868
2.4586386680603027,0.0035003875382244,-2.658932498889044e-05,-1.6141464584507048e-05,0.1512181013822555,-9.687175750732422,-0.1570516526699066
2.4636454582214355,9.72897032625042e-06,-2.658932498889044e-05,-1.6141464584507048e-05,0.1310788840055465,-9.707500457763672,-0.1578779071569442
2.468651056289673,9.72897032625042e-06,-2.658932498889044e-05,-1.6141464584507048e-05,0.1108555942773819,-9.708560943603516,-0.1783001124858856
2.4736576080322266,-0.003480929415673,0.0017187398625537,0.0017291877884417,0.1510817855596542,-9.707164764404297,-0.1574513167142868
2.478663206100464,-0.003480929415673,-2.658932498889044e-05,-1.6141464584507048e-05,0.1309948116540908,-9.688237190246582,-0.1774738430976867
2.4836690425872803,9.72897032625042e-06,0.0017187398625537,0.0017291877884417,0.1109919100999832,-9.68857192993164,-0.1779004335403442
2.488675117492676,9.72897032625042e-06,0.0052093984559178,-1.6141464584507048e-05,0.1312674432992935,-9.648259162902832,-0.176674485206604
2.4936816692352295,-0.0017356002936139,0.0052093984559178,-1.6141464584507048e-05,0.1114326864480972,-9.687119483947754,-0.13790924847126
2.498687505722046,9.72897032625042e-06,0.0034640692174434,0.0017291877884417,0.1308584958314895,-9.708226203918455,-0.1778735220432281
2.503693103790283,-0.0017356002936139,-2.658932498889044e-05,-0.0017614706885069,0.1505046933889389,-9.72860622406006,-0.1978421807289123
2.508699655532837,9.72897032625042e-06,-2.658932498889044e-05,0.0034745170269161,0.1312992721796035,-9.70677375793457,-0.1378823220729828
2.513705253601074,9.72897032625042e-06,0.0034640692174434,0.0017291877884417,0.1510817855596542,-9.707164764404297,-0.1574513167142868
2.518712043762207,9.72897032625042e-06,-0.0017719186143949,-1.6141464584507048e-05,0.1312151998281479,-9.687511444091797,-0.1574782431125641
2.5237176418304443,-0.003480929415673,0.0034640692174434,0.0017291877884417,0.0912093967199325,-9.688180923461914,-0.158331423997879
2.5287232398986816,-0.0017356002936139,-2.658932498889044e-05,0.0034745170269161,0.1313515156507492,-9.667522430419922,-0.1570785641670227
2.533728837966919,-0.0017356002936139,0.0017187398625537,-1.6141464584507048e-05,0.1312151998281479,-9.687511444091797,-0.1574782431125641
2.538735866546631,-0.003480929415673,0.0034640692174434,0.0017291877884417,0.1508613973855972,-9.707890510559082,-0.1774469316005706
2.543741464614868,-0.0017356002936139,-2.658932498889044e-05,0.0017291877884417,0.1509977132081985,-9.687901496887209,-0.1770472526550293
2.5487470626831055,9.72897032625042e-06,0.0034640692174434,0.0017291877884417,0.1305858790874481,-9.748204231262209,-0.1786728799343109
2.553753614425659,-0.003480929415673,0.0034640692174434,0.0052198460325598,0.1312151998281479,-9.687511444091797,-0.1574782431125641
2.5587592124938965,-0.003480929415673,-2.658932498889044e-05,0.0017291877884417,0.1116530746221542,-9.686393737792969,-0.1179136782884597
2.563764810562134,-0.0017356002936139,0.0034640692174434,0.0034745170269161,0.1509977132081985,-9.687901496887209,-0.1770472526550293
2.5687713623046875,-0.0017356002936139,-2.658932498889044e-05,-1.6141464584507048e-05,0.1115690022706985,-9.66713047027588,-0.1375095695257187
2.573776960372925,-0.0017356002936139,0.0017187398625537,-1.6141464584507048e-05,0.1517429500818252,-9.704985618591309,-0.0974645763635635
2.5787837505340576,9.72897032625042e-06,-2.658932498889044e-05,0.0034745170269161,0.1112122982740402,-9.687846183776855,-0.1579048335552215
2.583789348602295,-0.0017356002936139,0.0034640692174434,-1.6141464584507048e-05,0.1310788840055465,-9.707500457763672,-0.1578779071569442
2.5887949466705322,9.72897032625042e-06,0.0017187398625537,0.0017291877884417,0.1513021737337112,-9.706438064575195,-0.1374557316303253
2.593801498413086,9.72897032625042e-06,-2.658932498889044e-05,0.0017291877884417,0.1513862460851669,-9.725701332092283,-0.1178598403930664
2.5988070964813232,9.72897032625042e-06,-2.658932498889044e-05,-0.0017614706885069,0.1317922919988632,-9.666069984436035,-0.1170874089002609
2.6038126945495605,9.72897032625042e-06,0.0034640692174434,-1.6141464584507048e-05,0.1111282259225845,-9.668582916259766,-0.1775007545948028
2.6088192462921143,-0.0017356002936139,-2.658932498889044e-05,0.0017291877884417,0.1510817855596542,-9.707164764404297,-0.1574513167142868
2.6138248443603516,9.72897032625042e-06,-2.658932498889044e-05,0.0034745170269161,0.1510817855596542,-9.707164764404297,-0.1574513167142868
2.6188313961029053,9.72897032625042e-06,0.0034640692174434,-1.6141464584507048e-05,0.1505887806415558,-9.747868537902832,-0.1782462894916534
2.6238369941711426,9.72897032625042e-06,-2.658932498889044e-05,-1.6141464584507048e-05,0.1309425681829452,-9.727489471435549,-0.1582775861024856
2.62884259223938,9.72897032625042e-06,-2.658932498889044e-05,0.0017291877884417,0.1115167587995529,-9.706382751464844,-0.1183133423328399
2.633848190307617,-0.003480929415673,0.0052093984559178,-1.6141464584507048e-05,0.1515748053789138,-9.666460037231444,-0.1366563886404037
2.638854742050171,9.72897032625042e-06,0.0034640692174434,-1.6141464584507048e-05,0.1312151998281479,-9.687511444091797,-0.1574782431125641
2.643860101699829,9.72897032625042e-06,-2.658932498889044e-05,-1.6141464584507048e-05,0.1112122982740402,-9.687846183776855,-0.1579048335552215
2.6488656997680664,9.72897032625042e-06,-2.658932498889044e-05,-1.6141464584507048e-05,0.1510295569896698,-9.746416091918944,-0.138255089521408
2.65387225151062,-0.0017356002936139,-2.658932498889044e-05,0.0034745170269161,0.1103625744581222,-9.749265670776367,-0.1990950405597686
2.6588776111602783,0.0017550581833347,0.0017187398625537,0.0034745170269161,0.1307221800088882,-9.728215217590332,-0.1782732009887695
2.6638832092285156,-0.0017356002936139,0.0034640692174434,-0.0017614706885069,0.1312151998281479,-9.687511444091797,-0.1574782431125641
2.6688897609710693,-0.0017356002936139,-2.658932498889044e-05,-1.6141464584507048e-05,0.1314355880022049,-9.686784744262695,-0.1374826580286026
2.6738951206207275,9.72897032625042e-06,0.0034640692174434,0.0034745170269161,0.1513544172048568,-9.667186737060549,-0.1566519737243652
2.678900718688965,9.72897032625042e-06,-2.658932498889044e-05,-1.6141464584507048e-05,0.1512181013822555,-9.687175750732422,-0.1570516526699066
2.6839072704315186,9.72897032625042e-06,0.0034640692174434,-1.6141464584507048e-05,0.1514384895563125,-9.68644905090332,-0.1370560675859451
2.688912868499756,-0.0069715878926217,0.0017187398625537,0.0017291877884417,0.1505887806415558,-9.747868537902832,-0.1782462894916534
2.6939191818237305,-0.0017356002936139,0.0034640692174434,0.0034745170269161,0.1509454697370529,-9.727153778076172,-0.1578509956598281
2.6989247798919678,-0.0017356002936139,0.0034640692174434,-1.6141464584507048e-05,0.1508091688156128,-9.747142791748049,-0.1582506746053695
2.703930139541626,-0.0017356002936139,-2.658932498889044e-05,-1.6141464584507048e-05,0.1310788840055465,-9.707500457763672,-0.1578779071569442
2.7089364528656006,-0.0017356002936139,0.0017187398625537,0.0017291877884417,0.1110759824514389,-9.70783519744873,-0.1583044975996017
2.713942050933838,-0.003480929415673,-2.658932498889044e-05,-1.6141464584507048e-05,0.1505569368600845,-9.689353942871094,-0.2170384228229522
2.718947410583496,9.72897032625042e-06,-2.658932498889044e-05,0.0034745170269161,0.1309948116540908,-9.688237190246582,-0.1774738430976867
2.7239530086517334,9.72897032625042e-06,0.0017187398625537,-1.6141464584507048e-05,0.1515225619077682,-9.70571231842041,-0.117460161447525
2.728959321975708,-0.0017356002936139,0.0034640692174434,-0.0017614706885069,0.1312992721796035,-9.70677375793457,-0.1378823220729828
2.733964681625366,9.72897032625042e-06,0.0017187398625537,0.0017291877884417,0.1111600548028945,-9.727097511291504,-0.1387085914611816
2.73897123336792,9.72897032625042e-06,0.0034640692174434,-1.6141464584507048e-05,0.1312992721796035,-9.70677375793457,-0.1378823220729828
2.7439768314361572,-0.003480929415673,0.0034640692174434,0.0017291877884417,0.1517951935529709,-9.66573429107666,-0.1166608184576034
2.7489821910858154,-0.0017356002936139,-2.658932498889044e-05,0.0017291877884417,0.1315196603536605,-9.706048011779783,-0.1178867518901825
2.75398850440979,9.72897032625042e-06,-0.0017719186143949,-1.6141464584507048e-05,0.1113486140966415,-9.66785717010498,-0.1575051546096801
2.7589938640594482,9.72897032625042e-06,0.0017187398625537,0.0017291877884417,0.1314355880022049,-9.686784744262695,-0.1374826580286026
2.7639992237091064,-0.003480929415673,0.0034640692174434,-1.6141464584507048e-05,0.1313833445310592,-9.72603702545166,-0.1182864308357238
2.76900577545166,0.0017550581833347,-2.658932498889044e-05,0.0017291877884417,0.1704553663730621,-9.767522811889648,-0.1782193779945373
2.7740111351013184,9.72897032625042e-06,0.0034640692174434,-1.6141464584507048e-05,0.1307221800088882,-9.728215217590332,-0.1782732009887695
2.7790164947509766,9.72897032625042e-06,0.0034640692174434,-1.6141464584507048e-05,0.1312992721796035,-9.70677375793457,-0.1378823220729828
2.784022808074951,9.72897032625042e-06,-2.658932498889044e-05,0.0017291877884417,0.1515748053789138,-9.666460037231444,-0.1366563886404037
2.7890281677246094,-0.0017356002936139,0.0034640692174434,-1.6141464584507048e-05,0.1109919100999832,-9.68857192993164,-0.1779004335403442
2.7940335273742676,9.72897032625042e-06,0.0017187398625537,-1.6141464584507048e-05,0.1507250815629959,-9.727879524230955,-0.177846610546112
2.804043769836426,9.72897032625042e-06,0.0017187398625537,0.0034745170269161,0.1507250815629959,-9.727879524230955,-0.177846610546112
2.8090476989746094,-0.0017356002936139,0.0017187398625537,-1.6141464584507048e-05,0.1515225619077682,-9.70571231842041,-0.117460161447525
2.8140528202056885,9.72897032625042e-06,0.0017187398625537,-1.6141464584507048e-05,0.1312151998281479,-9.687511444091797,-0.1574782431125641
2.819056987762451,-0.003480929415673,-2.658932498889044e-05,-1.6141464584507048e-05,0.1309948116540908,-9.688237190246582,-0.1774738430976867
2.8240609169006348,9.72897032625042e-06,-2.658932498889044e-05,0.0017291877884417,0.1515748053789138,-9.666460037231444,-0.1366563886404037
2.829066038131714,-0.0017356002936139,0.0017187398625537,-1.6141464584507048e-05,0.1310788840055465,-9.707500457763672,-0.1578779071569442
2.8340702056884766,9.72897032625042e-06,0.0017187398625537,0.0017291877884417,0.1315719038248062,-9.66679573059082,-0.1370829790830612
2.83907413482666,-0.003480929415673,-2.658932498889044e-05,-0.0035067999269813,0.1511658579111099,-9.72642707824707,-0.1378554105758667
2.84407901763916,9.72897032625042e-06,0.0017187398625537,-1.6141464584507048e-05,0.1105829626321792,-9.748538970947266,-0.1790994703769683
2.849083185195923,9.72897032625042e-06,0.0052093984559178,0.0017291877884417,0.1508091688156128,-9.747142791748049,-0.1582506746053695
2.854088068008423,9.72897032625042e-06,-2.658932498889044e-05,-1.6141464584507048e-05,0.1519315093755722,-9.645745277404783,-0.116261139512062
2.8590919971466064,-0.0017356002936139,-2.658932498889044e-05,0.0017291877884417,0.1117893904447555,-9.666404724121094,-0.1175139993429184
2.864096164703369,9.72897032625042e-06,-2.658932498889044e-05,-1.6141464584507048e-05,0.1114326864480972,-9.687119483947754,-0.13790924847126
2.8691000938415527,-0.003480929415673,-2.658932498889044e-05,-1.6141464584507048e-05,0.1303654909133911,-9.748930931091309,-0.1986684501171112
2.874105215072632,9.72897032625042e-06,0.0017187398625537,0.0017291877884417,0.1304495632648468,-9.768193244934082,-0.1790725588798523
2.8791091442108154,9.72897032625042e-06,-2.658932498889044e-05,0.0017291877884417,0.1110759824514389,-9.70783519744873,-0.1583044975996017
2.884113073348999,-0.0017356002936139,0.0034640692174434,-1.6141464584507048e-05,0.1512499451637268,-9.74569034576416,-0.1182595193386077
2.889118194580078,9.72897032625042e-06,0.0017187398625537,0.0017291877884417,0.1113486140966415,-9.66785717010498,-0.1575051546096801
2.8941218852996826,9.72897032625042e-06,-2.658932498889044e-05,-0.0017614706885069,0.1111282259225845,-9.668582916259766,-0.1775007545948028
2.8991270065307617,9.72897032625042e-06,0.0017187398625537,-1.6141464584507048e-05,0.1315719038248062,-9.66679573059082,-0.1370829790830612
2.904130697250366,-0.0017356002936139,0.0034640692174434,0.0017291877884417,0.1108555942773819,-9.708560943603516,-0.1783001124858856
2.9091343879699707,-0.0017356002936139,-2.658932498889044e-05,0.0034745170269161,0.1510817855596542,-9.707164764404297,-0.1574513167142868
2.9141385555267334,-0.0017356002936139,-2.658932498889044e-05,-0.0017614706885069,0.1309425681829452,-9.727489471435549,-0.1582775861024856
2.9191431999206543,-0.0017356002936139,0.0017187398625537,0.0017291877884417,0.1311629563570022,-9.726762771606444,-0.1382820010185241
2.924147367477417,9.72897032625042e-06,0.0034640692174434,-1.6141464584507048e-05,0.1515225619077682,-9.70571231842041,-0.117460161447525
2.9291512966156006,-0.0017356002936139,0.0017187398625537,-1.6141464584507048e-05,0.1315196603536605,-9.706048011779783,-0.1178867518901825
2.9341561794281006,0.0017550581833347,0.0034640692174434,-1.6141464584507048e-05,0.1517951935529709,-9.66573429107666,-0.1166608184576034
2.939159870147705,-0.003480929415673,-2.658932498889044e-05,-1.6141464584507048e-05,0.1318763643503189,-9.685332298278809,-0.0974915027618408
2.944164991378784,9.72897032625042e-06,0.0034640692174434,0.0034745170269161,0.1505046933889389,-9.72860622406006,-0.1978421807289123
2.9491686820983887,9.72897032625042e-06,-2.658932498889044e-05,0.0017291877884417,0.1503683924674987,-9.748595237731934,-0.1982418596744537
2.9541726112365723,9.72897032625042e-06,-2.658932498889044e-05,-1.6141464584507048e-05,0.1309425681829452,-9.727489471435549,-0.1582775861024856
2.9591774940490723,9.72897032625042e-06,-2.658932498889044e-05,0.0017291877884417,0.1310788840055465,-9.707500457763672,-0.1578779071569442
2.9641811847686768,9.72897032625042e-06,-2.658932498889044e-05,-1.6141464584507048e-05,0.1116530746221542,-9.686393737792969,-0.1179136782884597
2.9691851139068604,-0.0017356002936139,0.0017187398625537,-1.6141464584507048e-05,0.1314355880022049,-9.686784744262695,-0.1374826580286026
2.9741899967193604,9.72897032625042e-06,-2.658932498889044e-05,0.0034745170269161,0.1515225619077682,-9.70571231842041,-0.117460161447525
2.9791934490203857,9.72897032625042e-06,0.0034640692174434,0.0034745170269161,0.1310788840055465,-9.707500457763672,-0.1578779071569442
2.9841973781585693,-0.003480929415673,-2.658932498889044e-05,-1.6141464584507048e-05,0.1511658579111099,-9.72642707824707,-0.1378554105758667
2.9892020225524902,9.72897032625042e-06,0.0017187398625537,0.0017291877884417,0.1309425681829452,-9.727489471435549,-0.1582775861024856
2.994206190109253,9.72897032625042e-06,-0.0017719186143949,0.0017291877884417,0.1312992721796035,-9.70677375793457,-0.1378823220729828
2.9992096424102783,9.72897032625042e-06,0.0017187398625537,0.0017291877884417,0.1316559761762619,-9.68605899810791,-0.1174870878458023
3.004213809967041,9.72897032625042e-06,0.0017187398625537,-1.6141464584507048e-05,0.1317082196474075,-9.646806716918944,-0.1366833001375198
3.009218215942383,9.72897032625042e-06,0.0034640692174434,-1.6141464584507048e-05,0.1113486140966415,-9.66785717010498,-0.1575051546096801
3.0142219066619873,9.72897032625042e-06,-2.658932498889044e-05,-1.6141464584507048e-05,0.1310788840055465,-9.707500457763672,-0.1578779071569442
3.0192267894744873,-0.003480929415673,-2.658932498889044e-05,-1.6141464584507048e-05,0.1310266554355621,-9.74675178527832,-0.1386816799640655
3.024230480194092,-0.0017356002936139,0.0034640692174434,0.0034745170269161,0.170643925666809,-9.708282470703123,-0.1970159411430359
3.0292341709136963,9.72897032625042e-06,0.0017187398625537,-1.6141464584507048e-05,0.1312992721796035,-9.70677375793457,-0.1378823220729828
3.034238815307617,9.72897032625042e-06,0.0017187398625537,0.0017291877884417,0.1112963706254959,-9.707108497619627,-0.1383089125156402
3.039242744445801,9.72897032625042e-06,0.0052093984559178,-1.6141464584507048e-05,0.1314355880022049,-9.686784744262695,-0.1374826580286026
3.044246196746826,-0.0017356002936139,-2.658932498889044e-05,-1.6141464584507048e-05,0.1314355880022049,-9.686784744262695,-0.1374826580286026
3.049250841140747,-0.003480929415673,-2.658932498889044e-05,0.0017291877884417,0.1511340290307998,-9.667912483215332,-0.1766475737094879
3.0542545318603516,9.72897032625042e-06,0.0052093984559178,-1.6141464584507048e-05,0.1510817855596542,-9.707164764404297,-0.1574513167142868
3.059257984161377,9.72897032625042e-06,0.0017187398625537,-1.6141464584507048e-05,0.1313833445310592,-9.72603702545166,-0.1182864308357238
3.064262866973877,0.0017550581833347,0.0017187398625537,-1.6141464584507048e-05,0.1509454697370529,-9.727153778076172,-0.1578509956598281
3.0692665576934814,9.72897032625042e-06,-2.658932498889044e-05,-1.6141464584507048e-05,0.1312151998281479,-9.687511444091797,-0.1574782431125641
3.0742712020874023,-0.0017356002936139,0.0052093984559178,-1.6141464584507048e-05,0.1115690022706985,-9.66713047027588,-0.1375095695257187
3.079274892807007,-0.0017356002936139,0.0017187398625537,-1.6141464584507048e-05,0.1310788840055465,-9.707500457763672,-0.1578779071569442
3.0842785835266113,9.72897032625042e-06,-2.658932498889044e-05,-1.6141464584507048e-05,0.1514384895563125,-9.68644905090332,-0.1370560675859451
3.0892832279205322,9.72897032625042e-06,-2.658932498889044e-05,-1.6141464584507048e-05,0.1308584958314895,-9.708226203918455,-0.1778735220432281
3.0942869186401367,9.72897032625042e-06,0.0034640692174434,-1.6141464584507048e-05,0.1505046933889389,-9.72860622406006,-0.1978421807289123
3.099290132522583,9.72897032625042e-06,0.0017187398625537,-0.0035067999269813,0.1309425681829452,-9.727489471435549,-0.1582775861024856
3.104295015335083,9.72897032625042e-06,0.0017187398625537,0.0017291877884417,0.1318763643503189,-9.685332298278809,-0.0974915027618408
3.1092984676361084,9.72897032625042e-06,-2.658932498889044e-05,-1.6141464584507048e-05,0.1112122982740402,-9.687846183776855,-0.1579048335552215
3.114302158355713,9.72897032625042e-06,0.0017187398625537,-1.6141464584507048e-05,0.1312992721796035,-9.70677375793457,-0.1378823220729828
3.1193065643310547,-0.0052262586541473,-2.658932498889044e-05,-1.6141464584507048e-05,0.1510817855596542,-9.707164764404297,-0.1574513167142868
3.124310255050659,-0.0017356002936139,0.0034640692174434,-1.6141464584507048e-05,0.1312992721796035,-9.70677375793457,-0.1378823220729828
3.1293137073516846,0.0017550581833347,-2.658932498889044e-05,0.0017291877884417,0.1509454697370529,-9.727153778076172,-0.1578509956598281
3.1343185901641846,9.72897032625042e-06,0.0017187398625537,-1.6141464584507048e-05,0.1313833445310592,-9.72603702545166,-0.1182864308357238
3.13932204246521,0.0035003875382244,0.0017187398625537,0.0052198460325598,0.1311629563570022,-9.726762771606444,-0.1382820010185241
3.1443254947662354,9.72897032625042e-06,0.0034640692174434,-1.6141464584507048e-05,0.1510817855596542,-9.707164764404297,-0.1574513167142868
3.1493301391601562,9.72897032625042e-06,0.0017187398625537,0.0017291877884417,0.1312151998281479,-9.687511444091797,-0.1574782431125641
3.1543333530426025,9.72897032625042e-06,0.0017187398625537,-1.6141464584507048e-05,0.1112122982740402,-9.687846183776855,-0.1579048335552215
3.159336805343628,-0.0017356002936139,0.0017187398625537,-1.6141464584507048e-05,0.1309948116540908,-9.688237190246582,-0.1774738430976867
3.164341449737549,-0.003480929415673,0.0017187398625537,0.0017291877884417,0.1107192784547805,-9.72854995727539,-0.178699791431427
3.169344902038574,9.72897032625042e-06,-2.658932498889044e-05,0.0017291877884417,0.1710847020149231,-9.706830024719238,-0.1570247411727905
3.1743485927581787,-0.003480929415673,0.0034640692174434,-1.6141464584507048e-05,0.1311629563570022,-9.726762771606444,-0.1382820010185241
3.1793529987335205,9.72897032625042e-06,0.0017187398625537,0.0052198460325598,0.1312992721796035,-9.70677375793457,-0.1378823220729828
3.184356451034546,9.72897032625042e-06,-2.658932498889044e-05,-1.6141464584507048e-05,0.1110759824514389,-9.70783519744873,-0.1583044975996017
3.1893599033355713,9.72897032625042e-06,0.0017187398625537,-1.6141464584507048e-05,0.1111282259225845,-9.668582916259766,-0.1775007545948028
3.194364309310913,-0.0017356002936139,0.0034640692174434,-1.6141464584507048e-05,0.1310788840055465,-9.707500457763672,-0.1578779071569442
3.1993675231933594,9.72897032625042e-06,0.0017187398625537,-1.6141464584507048e-05,0.1308062672615051,-9.747478485107422,-0.158677265048027
3.2043709754943848,9.72897032625042e-06,0.0017187398625537,0.0052198460325598,0.1110759824514389,-9.70783519744873,-0.1583044975996017
3.2093753814697266,-0.0017356002936139,-2.658932498889044e-05,0.0017291877884417,0.1309425681829452,-9.727489471435549,-0.1582775861024856
3.214378833770752,9.72897032625042e-06,0.0034640692174434,-1.6141464584507048e-05,0.1109919100999832,-9.68857192993164,-0.1779004335403442
3.2193822860717773,9.72897032625042e-06,-0.0017719186143949,-1.6141464584507048e-05,0.1312992721796035,-9.70677375793457,-0.1378823220729828
3.224386692047119,9.72897032625042e-06,0.0017187398625537,-1.6141464584507048e-05,0.1313515156507492,-9.667522430419922,-0.1570785641670227
3.2293901443481445,-0.0017356002936139,0.0017187398625537,-1.6141464584507048e-05,0.1115690022706985,-9.66713047027588,-0.1375095695257187
3.23439359664917,9.72897032625042e-06,0.0017187398625537,-1.6141464584507048e-05,0.1310788840055465,-9.707500457763672,-0.1578779071569442
3.2393980026245117,-0.0017356002936139,0.0017187398625537,0.0034745170269161,0.1316037327051162,-9.72531032562256,-0.0982908457517623
3.244401216506958,9.72897032625042e-06,-2.658932498889044e-05,-1.6141464584507048e-05,0.1711687743663787,-9.726092338562012,-0.1374288350343704
3.2494056224823,9.72897032625042e-06,0.0052093984559178,0.0017291877884417,0.1309425681829452,-9.727489471435549,-0.1582775861024856
3.254408836364746,9.72897032625042e-06,0.0052093984559178,-1.6141464584507048e-05,0.1310788840055465,-9.707500457763672,-0.1578779071569442
3.2594122886657715,9.72897032625042e-06,0.0017187398625537,-1.6141464584507048e-05,0.1315719038248062,-9.66679573059082,-0.1370829790830612
3.264415740966797,-0.0017356002936139,-2.658932498889044e-05,-1.6141464584507048e-05,0.1309948116540908,-9.688237190246582,-0.1774738430976867
3.2694199085235596,9.72897032625042e-06,0.0034640692174434,0.0034745170269161,0.1513021737337112,-9.706438064575195,-0.1374557316303253
3.274423360824585,-0.003480929415673,0.0017187398625537,-1.6141464584507048e-05,0.1308062672615051,-9.747478485107422,-0.158677265048027
3.2794268131256104,-0.0017356002936139,-2.658932498889044e-05,-1.6141464584507048e-05,0.1513021737337112,-9.706438064575195,-0.1374557316303253
3.284430742263794,9.72897032625042e-06,-2.658932498889044e-05,0.0017291877884417,0.1509454697370529,-9.727153778076172,-0.1578509956598281
3.2894341945648193,9.72897032625042e-06,0.0034640692174434,0.0034745170269161,0.1312992721796035,-9.70677375793457,-0.1378823220729828
3.294438600540161,-0.0017356002936139,-2.658932498889044e-05,0.0017291877884417,0.1314355880022049,-9.686784744262695,-0.1374826580286026
3.2994418144226074,-0.0017356002936139,-2.658932498889044e-05,-0.0017614706885069,0.1314355880022049,-9.686784744262695,-0.1374826580286026
3.3044450283050537,-0.0017356002936139,-2.658932498889044e-05,0.0017291877884417,0.1313515156507492,-9.667522430419922,-0.1570785641670227
3.3094491958618164,9.72897032625042e-06,0.0034640692174434,-1.6141464584507048e-05,0.1312151998281479,-9.687511444091797,-0.1574782431125641
3.314452648162842,9.72897032625042e-06,-2.658932498889044e-05,0.0034745170269161,0.1309425681829452,-9.727489471435549,-0.1582775861024856
3.319455862045288,-0.003480929415673,0.0034640692174434,-1.6141464584507048e-05,0.1309425681829452,-9.727489471435549,-0.1582775861024856
3.324460029602051,9.72897032625042e-06,0.0069547276943922,-1.6141464584507048e-05,0.1314355880022049,-9.686784744262695,-0.1374826580286026
3.329463243484497,-0.0017356002936139,0.0017187398625537,-0.0017614706885069,0.0914297848939895,-9.687454223632812,-0.1383358389139175
3.3344664573669434,9.72897032625042e-06,0.0052093984559178,-1.6141464584507048e-05,0.1315719038248062,-9.66679573059082,-0.1370829790830612
3.339470386505127,9.72897032625042e-06,0.0034640692174434,-1.6141464584507048e-05,0.1513021737337112,-9.706438064575195,-0.1374557316303253
3.3444736003875732,-0.0017356002936139,0.0034640692174434,0.0017291877884417,0.1312151998281479,-9.687511444091797,-0.1574782431125641
3.3494770526885986,9.72897032625042e-06,-2.658932498889044e-05,-1.6141464584507048e-05,0.1310266554355621,-9.74675178527832,-0.1386816799640655
3.3544814586639404,9.72897032625042e-06,0.0034640692174434,0.0017291877884417,0.1311629563570022,-9.726762771606444,-0.1382820010185241
3.3594846725463867,9.72897032625042e-06,0.0017187398625537,-1.6141464584507048e-05,0.1307221800088882,-9.728215217590332,-0.1782732009887695
3.364487648010254,9.72897032625042e-06,0.0017187398625537,0.0052198460325598,0.0912093967199325,-9.688180923461914,-0.158331423997879
3.3694918155670166,-0.0017356002936139,-2.658932498889044e-05,-1.6141464584507048e-05,0.1317922919988632,-9.666069984436035,-0.1170874089002609
3.374494791030884,9.72897032625042e-06,0.0017187398625537,-1.6141464584507048e-05,0.1307221800088882,-9.728215217590332,-0.1782732009887695
3.37949800491333,-0.0017356002936139,0.0017187398625537,-1.6141464584507048e-05,0.1510817855596542,-9.707164764404297,-0.1574513167142868
3.3845021724700928,9.72897032625042e-06,-2.658932498889044e-05,-1.6141464584507048e-05,0.1112122982740402,-9.687846183776855,-0.1579048335552215
3.389505386352539,9.72897032625042e-06,0.0034640692174434,-1.6141464584507048e-05,0.1516588777303695,-9.685723304748535,-0.1170604974031448
3.3945086002349854,-0.0017356002936139,-2.658932498889044e-05,0.0034745170269161,0.1507250815629959,-9.727879524230955,-0.177846610546112
3.399512529373169,-0.003480929415673,0.0017187398625537,0.0017291877884417,0.1510817855596542,-9.707164764404297,-0.1574513167142868
3.404515504837036,9.72897032625042e-06,-2.658932498889044e-05,-1.6141464584507048e-05,0.1309948116540908,-9.688237190246582,-0.1774738430976867
3.4095187187194824,-0.0017356002936139,-2.658932498889044e-05,-1.6141464584507048e-05,0.1312151998281479,-9.687511444091797,-0.1574782431125641
3.414522886276245,-0.003480929415673,0.0017187398625537,-1.6141464584507048e-05,0.1508613973855972,-9.707890510559082,-0.1774469316005706
3.4195261001586914,-0.0017356002936139,-2.658932498889044e-05,0.0017291877884417,0.1310788840055465,-9.707500457763672,-0.1578779071569442
3.424530029296875,9.72897032625042e-06,-2.658932498889044e-05,-0.0017614706885069,0.1508091688156128,-9.747142791748049,-0.1582506746053695
3.4295332431793213,-0.0017356002936139,0.0034640692174434,-1.6141464584507048e-05,0.1112122982740402,-9.687846183776855,-0.1579048335552215
3.4345359802246094,9.72897032625042e-06,0.0017187398625537,0.0052198460325598,0.1112122982740402,-9.687846183776855,-0.1579048335552215
3.4395391941070557,-0.0052262586541473,0.0017187398625537,0.0017291877884417,0.1107715219259262,-9.689298629760742,-0.1978960335254669
3.4445431232452393,-0.003480929415673,0.0017187398625537,-1.6141464584507048e-05,0.1111600548028945,-9.727097511291504,-0.1387085914611816
3.4495463371276855,0.0017550581833347,0.0017187398625537,0.0017291877884417,0.1710847020149231,-9.706830024719238,-0.1570247411727905
3.4545493125915527,9.72897032625042e-06,0.0017187398625537,-0.0017614706885069,0.1311629563570022,-9.726762771606444,-0.1382820010185241
3.4595534801483154,-0.0017356002936139,-2.658932498889044e-05,-1.6141464584507048e-05,0.1309425681829452,-9.727489471435549,-0.1582775861024856
3.4645564556121826,-0.0017356002936139,-2.658932498889044e-05,-1.6141464584507048e-05,0.1311629563570022,-9.726762771606444,-0.1382820010185241
3.469560146331787,9.72897032625042e-06,0.0034640692174434,-0.0017614706885069,0.1513021737337112,-9.706438064575195,-0.1374557316303253
3.4745633602142334,-0.0017356002936139,-2.658932498889044e-05,0.0034745170269161,0.1314355880022049,-9.686784744262695,-0.1374826580286026
3.4795663356781006,9.72897032625042e-06,0.0017187398625537,-1.6141464584507048e-05,0.1312992721796035,-9.70677375793457,-0.1378823220729828
3.484570264816284,-0.0017356002936139,0.0017187398625537,-1.6141464584507048e-05,0.1513021737337112,-9.706438064575195,-0.1374557316303253
3.4895732402801514,9.72897032625042e-06,0.0017187398625537,-1.6141464584507048e-05,0.1308584958314895,-9.708226203918455,-0.1778735220432281
3.4945762157440186,9.72897032625042e-06,0.0034640692174434,0.0017291877884417,0.1308062672615051,-9.747478485107422,-0.158677265048027
3.499580144882202,0.0017550581833347,0.0017187398625537,-1.6141464584507048e-05,0.1510295569896698,-9.746416091918944,-0.138255089521408
3.5045828819274902,9.72897032625042e-06,-2.658932498889044e-05,-1.6141464584507048e-05,0.1306381076574325,-9.70895290374756,-0.1978690922260284
3.5095860958099365,-0.003480929415673,-0.0017719186143949,0.0017291877884417,0.1315719038248062,-9.66679573059082,-0.1370829790830612
3.51459002494812,-0.0017356002936139,-2.658932498889044e-05,-1.6141464584507048e-05,0.1515748053789138,-9.666460037231444,-0.1366563886404037
3.5195930004119873,-0.0017356002936139,-2.658932498889044e-05,0.0034745170269161,0.1315196603536605,-9.706048011779783,-0.1178867518901825
3.5245957374572754,9.72897032625042e-06,-2.658932498889044e-05,-1.6141464584507048e-05,0.1509454697370529,-9.727153778076172,-0.1578509956598281
3.529599666595459,-0.0017356002936139,-2.658932498889044e-05,-1.6141464584507048e-05,0.1309425681829452,-9.727489471435549,-0.1582775861024856
3.534602403640747,9.72897032625042e-06,-2.658932498889044e-05,-1.6141464584507048e-05,0.1312470436096191,-9.746026039123535,-0.1186861097812652
3.5396053791046143,-0.003480929415673,0.0017187398625537,-1.6141464584507048e-05,0.1307221800088882,-9.728215217590332,-0.1782732009887695
3.544609308242798,9.72897032625042e-06,-2.658932498889044e-05,-1.6141464584507048e-05,0.1112122982740402,-9.687846183776855,-0.1579048335552215
3.549612283706665,9.72897032625042e-06,0.0017187398625537,0.0017291877884417,0.1513544172048568,-9.667186737060549,-0.1566519737243652
3.554615020751953,0.0017550581833347,0.0052093984559178,-1.6141464584507048e-05,0.1509136408567428,-9.668639183044434,-0.1966431736946106
3.5596189498901367,-0.003480929415673,0.0017187398625537,-1.6141464584507048e-05,0.171493649482727,-9.646862983703612,-0.1558257192373275
3.564621686935425,-0.0017356002936139,0.0017187398625537,-0.0052521293982863,0.1509454697370529,-9.727153778076172,-0.1578509956598281
3.569624423980713,9.72897032625042e-06,0.0034640692174434,0.0069651752710342,0.1313833445310592,-9.72603702545166,-0.1182864308357238
3.5746285915374756,-0.0052262586541473,0.0017187398625537,-1.6141464584507048e-05,0.1311629563570022,-9.726762771606444,-0.1382820010185241
3.5796313285827637,9.72897032625042e-06,0.0034640692174434,0.0017291877884417,0.1309425681829452,-9.727489471435549,-0.1582775861024856
3.5846340656280518,9.72897032625042e-06,0.0017187398625537,-1.6141464584507048e-05,0.1312992721796035,-9.70677375793457,-0.1378823220729828
3.5896379947662354,-0.0017356002936139,0.0017187398625537,-0.0017614706885069,0.1313515156507492,-9.667522430419922,-0.1570785641670227
3.5946404933929443,9.72897032625042e-06,-2.658932498889044e-05,0.0034745170269161,0.1509977132081985,-9.687901496887209,-0.1770472526550293
3.5996434688568115,9.72897032625042e-06,0.0034640692174434,-0.0017614706885069,0.1313515156507492,-9.667522430419922,-0.1570785641670227
3.604647159576416,-0.003480929415673,-2.658932498889044e-05,-1.6141464584507048e-05,0.1112963706254959,-9.707108497619627,-0.1383089125156402
3.609649896621704,-0.0017356002936139,-2.658932498889044e-05,-1.6141464584507048e-05,0.1510817855596542,-9.707164764404297,-0.1574513167142868
3.6146528720855713,-0.0017356002936139,0.0017187398625537,0.0017291877884417,0.1501480042934417,-9.74932098388672,-0.2182374447584152
3.619656562805176,9.72897032625042e-06,0.0017187398625537,-1.6141464584507048e-05,0.1309425681829452,-9.727489471435549,-0.1582775861024856
3.6246590614318848,0.0017550581833347,0.0034640692174434,0.0017291877884417,0.1113486140966415,-9.66785717010498,-0.1575051546096801
3.6296629905700684,9.72897032625042e-06,0.0017187398625537,0.0017291877884417,0.1319286078214645,-9.64608097076416,-0.1166877299547195
3.6346657276153564,9.72897032625042e-06,0.0034640692174434,0.0017291877884417,0.0913457125425338,-9.66819190979004,-0.1579317450523376
3.6396684646606445,9.72897032625042e-06,0.0052093984559178,-1.6141464584507048e-05,0.1308062672615051,-9.747478485107422,-0.158677265048027
3.644672155380249,-0.003480929415673,-2.658932498889044e-05,0.0034745170269161,0.1309425681829452,-9.727489471435549,-0.1582775861024856
3.649674654006958,-0.0017356002936139,-2.658932498889044e-05,-1.6141464584507048e-05,0.1309425681829452,-9.727489471435549,-0.1582775861024856
3.654677391052246,9.72897032625042e-06,0.0017187398625537,-1.6141464584507048e-05,0.1312470436096191,-9.746026039123535,-0.1186861097812652
3.6596810817718506,9.72897032625042e-06,-2.658932498889044e-05,-1.6141464584507048e-05,0.1315196603536605,-9.706048011779783,-0.1178867518901825
3.6646835803985596,-0.003480929415673,-2.658932498889044e-05,0.0017291877884417,0.1311629563570022,-9.726762771606444,-0.1382820010185241
3.6696865558624268,9.72897032625042e-06,-2.658932498889044e-05,0.0069651752710342,0.1514384895563125,-9.68644905090332,-0.1370560675859451
3.674690008163452,9.72897032625042e-06,0.0017187398625537,-1.6141464584507048e-05,0.1110759824514389,-9.70783519744873,-0.1583044975996017
3.6796927452087402,-0.003480929415673,-2.658932498889044e-05,-1.6141464584507048e-05,0.1509454697370529,-9.727153778076172,-0.1578509956598281
3.6846954822540283,9.72897032625042e-06,0.0017187398625537,0.0017291877884417,0.1105829626321792,-9.748538970947266,-0.1790994703769683
3.689699172973633,9.72897032625042e-06,-2.658932498889044e-05,-1.6141464584507048e-05,0.1311629563570022,-9.726762771606444,-0.1382820010185241
3.694701910018921,-0.0017356002936139,0.0017187398625537,-1.6141464584507048e-05,0.1510817855596542,-9.707164764404297,-0.1574513167142868
3.699704647064209,9.72897032625042e-06,-2.658932498889044e-05,-1.6141464584507048e-05,0.1112122982740402,-9.687846183776855,-0.1579048335552215
3.7047078609466553,-0.003480929415673,0.0017187398625537,-1.6141464584507048e-05,0.1312151998281479,-9.687511444091797,-0.1574782431125641
3.7097105979919434,9.72897032625042e-06,0.0017187398625537,0.0034745170269161,0.1512181013822555,-9.687175750732422,-0.1570516526699066
3.7147133350372314,-0.0017356002936139,-2.658932498889044e-05,0.0017291877884417,0.1513021737337112,-9.706438064575195,-0.1374557316303253
3.719716787338257,-0.0017356002936139,-2.658932498889044e-05,-1.6141464584507048e-05,0.1510295569896698,-9.746416091918944,-0.138255089521408
3.724719524383545,0.0017550581833347,0.0034640692174434,-1.6141464584507048e-05,0.1310788840055465,-9.707500457763672,-0.1578779071569442
3.729721784591675,-0.0017356002936139,-2.658932498889044e-05,0.0017291877884417,0.1314355880022049,-9.686784744262695,-0.1374826580286026
3.7347254753112793,9.72897032625042e-06,-0.0017719186143949,0.0034745170269161,0.1312151998281479,-9.687511444091797,-0.1574782431125641
3.7397282123565674,9.72897032625042e-06,-2.658932498889044e-05,-1.6141464584507048e-05,0.1312151998281479,-9.687511444091797,-0.1574782431125641
3.7447307109832764,-0.0017356002936139,0.0017187398625537,-1.6141464584507048e-05,0.1514384895563125,-9.68644905090332,-0.1370560675859451
3.749734401702881,-0.0017356002936139,-2.658932498889044e-05,-0.0017614706885069,0.1511658579111099,-9.72642707824707,-0.1378554105758667
3.7547366619110107,9.72897032625042e-06,0.0017187398625537,0.0034745170269161,0.1310788840055465,-9.707500457763672,-0.1578779071569442
3.759740114212036,-0.0017356002936139,-2.658932498889044e-05,0.0052198460325598,0.1110237389802932,-9.74708652496338,-0.139108270406723
3.764742851257324,9.72897032625042e-06,0.0034640692174434,-1.6141464584507048e-05,0.1507250815629959,-9.727879524230955,-0.177846610546112
3.769745349884033,-0.0017356002936139,0.0017187398625537,-1.6141464584507048e-05,0.1115167587995529,-9.706382751464844,-0.1183133423328399
3.7747488021850586,9.72897032625042e-06,0.0034640692174434,-1.6141464584507048e-05,0.1113486140966415,-9.66785717010498,-0.1575051546096801
3.7797510623931885,9.72897032625042e-06,-2.658932498889044e-05,-1.6141464584507048e-05,0.1112122982740402,-9.687846183776855,-0.1579048335552215
3.7847537994384766,9.72897032625042e-06,-2.658932498889044e-05,-1.6141464584507048e-05,0.1306381076574325,-9.70895290374756,-0.1978690922260284
3.7897562980651855,9.72897032625042e-06,0.0017187398625537,0.0034745170269161,0.1512499451637268,-9.74569034576416,-0.1182595193386077
3.794759750366211,9.72897032625042e-06,0.0017187398625537,-1.6141464584507048e-05,0.1507250815629959,-9.727879524230955,-0.177846610546112
3.799771785736084,-0.003480929415673,-2.658932498889044e-05,0.0017291877884417,0.0917864888906478,-9.666739463806152,-0.1179405897855758
3.804788112640381,9.72897032625042e-06,0.0034640692174434,-1.6141464584507048e-05,0.1112963706254959,-9.707108497619627,-0.1383089125156402
3.8098034858703613,9.72897032625042e-06,-2.658932498889044e-05,-1.6141464584507048e-05,0.1114326864480972,-9.687119483947754,-0.13790924847126
3.8148090839385986,9.72897032625042e-06,-2.658932498889044e-05,0.0017291877884417,0.1515225619077682,-9.70571231842041,-0.117460161447525
3.8198142051696777,9.72897032625042e-06,0.0052093984559178,0.0052198460325598,0.1312992721796035,-9.70677375793457,-0.1378823220729828
3.8248181343078613,9.72897032625042e-06,-2.658932498889044e-05,-1.6141464584507048e-05,0.1506410092115402,-9.708617210388184,-0.1974425017833709
3.829822301864624,-0.0017356002936139,0.0052093984559178,0.0017291877884417,0.0908845216035842,-9.767410278320312,-0.1399345397949218
3.8348259925842285,-0.0017356002936139,-2.658932498889044e-05,-1.6141464584507048e-05,0.1512181013822555,-9.687175750732422,-0.1570516526699066
3.8398313522338867,9.72897032625042e-06,0.0034640692174434,0.0052198460325598,0.1106352061033248,-9.709287643432615,-0.1982956826686859
3.844835042953491,-0.0017356002936139,0.0052093984559178,-0.0035067999269813,0.1515748053789138,-9.666460037231444,-0.1366563886404037
3.8498404026031494,9.72897032625042e-06,0.0034640692174434,0.0052198460325598,0.1517951935529709,-9.66573429107666,-0.1166608184576034
3.854844093322754,9.72897032625042e-06,0.0017187398625537,-1.6141464584507048e-05,0.1109919100999832,-9.68857192993164,-0.1779004335403442
3.8598480224609375,-0.0052262586541473,-2.658932498889044e-05,-1.6141464584507048e-05,0.1110759824514389,-9.70783519744873,-0.1583044975996017
3.8648531436920166,9.72897032625042e-06,0.0052093984559178,-1.6141464584507048e-05,0.1715254783630371,-9.705377578735352,-0.1170335859060287
3.8698570728302,-0.0052262586541473,0.0017187398625537,-0.0017614706885069,0.1308062672615051,-9.747478485107422,-0.158677265048027
3.874861001968384,-0.0017356002936139,0.0034640692174434,0.0017291877884417,0.1115167587995529,-9.706382751464844,-0.1183133423328399
3.879865884780884,-0.0017356002936139,0.0034640692174434,-1.6141464584507048e-05,0.1314355880022049,-9.686784744262695,-0.1374826580286026
3.8848698139190674,-0.003480929415673,-2.658932498889044e-05,-1.6141464584507048e-05,0.1514384895563125,-9.68644905090332,-0.1370560675859451
3.889873743057251,9.72897032625042e-06,-2.658932498889044e-05,-1.6141464584507048e-05,0.1514384895563125,-9.68644905090332,-0.1370560675859451
3.894878387451172,-0.0017356002936139,-0.0017719186143949,-1.6141464584507048e-05,0.1512181013822555,-9.687175750732422,-0.1570516526699066
3.8998825550079346,9.72897032625042e-06,-2.658932498889044e-05,-1.6141464584507048e-05,0.1313515156507492,-9.667522430419922,-0.1570785641670227
3.904886484146118,9.72897032625042e-06,0.0034640692174434,-1.6141464584507048e-05,0.1307221800088882,-9.728215217590332,-0.1782732009887695
3.909891366958618,-0.003480929415673,0.0069547276943922,-1.6141464584507048e-05,0.1311629563570022,-9.726762771606444,-0.1382820010185241
3.9148952960968018,9.72897032625042e-06,-2.658932498889044e-05,0.0034745170269161,0.1509454697370529,-9.727153778076172,-0.1578509956598281
3.9199001789093018,0.0017550581833347,-2.658932498889044e-05,0.0017291877884417,0.1513544172048568,-9.667186737060549,-0.1566519737243652
3.9249041080474854,-0.003480929415673,0.0034640692174434,-1.6141464584507048e-05,0.1114326864480972,-9.687119483947754,-0.13790924847126
3.92990779876709,9.72897032625042e-06,0.0052093984559178,0.0017291877884417,0.1315719038248062,-9.66679573059082,-0.1370829790830612
3.9349117279052734,-0.003480929415673,-2.658932498889044e-05,-0.0017614706885069,0.1309425681829452,-9.727489471435549,-0.1582775861024856
3.9399166107177734,9.72897032625042e-06,0.0034640692174434,-1.6141464584507048e-05,0.1110237389802932,-9.74708652496338,-0.139108270406723
3.944920301437378,-0.0017356002936139,0.0017187398625537,-1.6141464584507048e-05,0.1309425681829452,-9.727489471435549,-0.1582775861024856
3.949925184249878,9.72897032625042e-06,-2.658932498889044e-05,-1.6141464584507048e-05,0.1514384895563125,-9.68644905090332,-0.1370560675859451
3.9549288749694824,9.72897032625042e-06,0.0052093984559178,-1.6141464584507048e-05,0.1511658579111099,-9.72642707824707,-0.1378554105758667
3.959932804107666,9.72897032625042e-06,-2.658932498889044e-05,-1.6141464584507048e-05,0.1514384895563125,-9.68644905090332,-0.1370560675859451
3.964937686920166,0.0017550581833347,0.0034640692174434,0.0034745170269161,0.1310788840055465,-9.707500457763672,-0.1578779071569442
3.9699413776397705,-0.003480929415673,0.0017187398625537,-0.0017614706885069,0.1312151998281479,-9.687511444091797,-0.1574782431125641
3.974945306777954,9.72897032625042e-06,-2.658932498889044e-05,-1.6141464584507048e-05,0.1508091688156128,-9.747142791748049,-0.1582506746053695
3.979950189590454,-0.0017356002936139,-0.003517247736454,-0.0017614706885069,0.1308584958314895,-9.708226203918455,-0.1778735220432281
3.9849538803100586,-0.003480929415673,0.0017187398625537,-1.6141464584507048e-05,0.1109396666288375,-9.727824211120604,-0.1587041765451431
3.989957809448242,9.72897032625042e-06,0.0017187398625537,0.0017291877884417,0.1512181013822555,-9.687175750732422,-0.1570516526699066
3.994962215423584,9.72897032625042e-06,0.0034640692174434,-1.6141464584507048e-05,0.1117053180932998,-9.647141456604004,-0.1371098905801773
3.9999659061431885,9.72897032625042e-06,-2.658932498889044e-05,0.0034745170269161,0.1112122982740402,-9.687846183776855,-0.1579048335552215
4.004969596862793,9.72897032625042e-06,0.0017187398625537,-1.6141464584507048e-05,0.1312151998281479,-9.687511444091797,-0.1574782431125641
4.009974002838135,9.72897032625042e-06,0.0017187398625537,-1.6141464584507048e-05,0.1305540353059768,-9.689689636230469,-0.2174650132656097
4.014977931976318,-0.003480929415673,-2.658932498889044e-05,0.0034745170269161,0.1308903396129608,-9.766740798950195,-0.1390813589096069
4.019981622695923,9.72897032625042e-06,0.0017187398625537,-1.6141464584507048e-05,0.1310266554355621,-9.74675178527832,-0.1386816799640655
4.024986505508423,-0.003480929415673,-0.0017719186143949,-1.6141464584507048e-05,0.1107192784547805,-9.72854995727539,-0.178699791431427
4.029990196228027,9.72897032625042e-06,0.0017187398625537,-1.6141464584507048e-05,0.1312151998281479,-9.687511444091797,-0.1574782431125641
4.034993886947632,-0.003480929415673,0.0017187398625537,0.0017291877884417,0.1513544172048568,-9.667186737060549,-0.1566519737243652
4.039997577667236,9.72897032625042e-06,0.0017187398625537,-1.6141464584507048e-05,0.1512181013822555,-9.687175750732422,-0.1570516526699066
4.045001983642578,9.72897032625042e-06,0.0017187398625537,-1.6141464584507048e-05,0.1309948116540908,-9.688237190246582,-0.1774738430976867
4.050005912780762,-0.0052262586541473,0.0052093984559178,-1.6141464584507048e-05,0.1508932411670684,-9.76640510559082,-0.1386547684669494
4.055010557174683,-0.003480929415673,0.0017187398625537,-1.6141464584507048e-05,0.1108033508062362,-9.74781322479248,-0.1591038554906845
4.060013771057129,9.72897032625042e-06,0.0017187398625537,0.0017291877884417,0.1114326864480972,-9.687119483947754,-0.13790924847126
4.065017461776733,9.72897032625042e-06,0.0034640692174434,-1.6141464584507048e-05,0.1309107393026352,-9.668974876403809,-0.197069764137268
4.070022106170654,9.72897032625042e-06,0.0017187398625537,0.0017291877884417,0.1509977132081985,-9.687901496887209,-0.1770472526550293
4.075025796890259,9.72897032625042e-06,-2.658932498889044e-05,-1.6141464584507048e-05,0.1120097786188125,-9.665678024291992,-0.0975184142589569
4.080029487609863,9.72897032625042e-06,0.0017187398625537,-1.6141464584507048e-05,0.1314355880022049,-9.686784744262695,-0.1374826580286026
4.085033893585205,9.72897032625042e-06,-2.658932498889044e-05,0.0034745170269161,0.1308062672615051,-9.747478485107422,-0.158677265048027
4.09003758430481,-0.0017356002936139,0.0034640692174434,-1.6141464584507048e-05,0.1315196603536605,-9.706048011779783,-0.1178867518901825
4.095041990280151,9.72897032625042e-06,0.0034640692174434,-1.6141464584507048e-05,0.1505046933889389,-9.72860622406006,-0.1978421807289123
4.100045680999756,9.72897032625042e-06,0.0017187398625537,-1.6141464584507048e-05,0.1315719038248062,-9.66679573059082,-0.1370829790830612
4.10504937171936,0.0035003875382244,0.0034640692174434,-1.6141464584507048e-05,0.1316559761762619,-9.68605899810791,-0.1174870878458023
4.110052585601807,9.72897032625042e-06,0.0017187398625537,-0.0017614706885069,0.1109919100999832,-9.68857192993164,-0.1779004335403442
4.1150572299957275,9.72897032625042e-06,-2.658932498889044e-05,0.0034745170269161,0.1315196603536605,-9.706048011779783,-0.1178867518901825
4.120060682296753,9.72897032625042e-06,-2.658932498889044e-05,0.0017291877884417,0.1313833445310592,-9.72603702545166,-0.1182864308357238
4.125065326690674,-0.0017356002936139,-2.658932498889044e-05,-1.6141464584507048e-05,0.1505046933889389,-9.72860622406006,-0.1978421807289123
4.130068778991699,9.72897032625042e-06,-2.658932498889044e-05,-1.6141464584507048e-05,0.1109396666288375,-9.727824211120604,-0.1587041765451431
4.1350719928741455,-0.003480929415673,0.0052093984559178,-1.6141464584507048e-05,0.1112122982740402,-9.687846183776855,-0.1579048335552215
4.140075922012329,9.72897032625042e-06,0.0017187398625537,-0.0017614706885069,0.1313515156507492,-9.667522430419922,-0.1570785641670227
4.145080327987671,9.72897032625042e-06,0.0017187398625537,0.0017291877884417,0.1517951935529709,-9.66573429107666,-0.1166608184576034
4.150083780288696,9.72897032625042e-06,-2.658932498889044e-05,-1.6141464584507048e-05,0.1308584958314895,-9.708226203918455,-0.1778735220432281
4.155088186264038,9.72897032625042e-06,-2.658932498889044e-05,-1.6141464584507048e-05,0.1311629563570022,-9.726762771606444,-0.1382820010185241
4.160091400146484,-0.0017356002936139,-2.658932498889044e-05,-1.6141464584507048e-05,0.1310266554355621,-9.74675178527832,-0.1386816799640655
4.165095090866089,-0.003480929415673,0.0034640692174434,0.0017291877884417,0.1511658579111099,-9.72642707824707,-0.1378554105758667
4.170099496841431,-0.0017356002936139,-2.658932498889044e-05,0.0017291877884417,0.1111282259225845,-9.668582916259766,-0.1775007545948028
4.175102949142456,9.72897032625042e-06,-2.658932498889044e-05,-1.6141464584507048e-05,0.1313515156507492,-9.667522430419922,-0.1570785641670227
4.1801064014434814,9.72897032625042e-06,-2.658932498889044e-05,0.0017291877884417,0.1115690022706985,-9.66713047027588,-0.1375095695257187
4.185109853744507,-0.0052262586541473,-2.658932498889044e-05,-1.6141464584507048e-05,0.1311629563570022,-9.726762771606444,-0.1382820010185241
4.190114259719849,-0.0017356002936139,-2.658932498889044e-05,0.0017291877884417,0.1305858790874481,-9.748204231262209,-0.1786728799343109
4.195117712020874,9.72897032625042e-06,-0.0017719186143949,-1.6141464584507048e-05,0.1509454697370529,-9.727153778076172,-0.1578509956598281
4.200121879577637,9.72897032625042e-06,0.0052093984559178,0.0017291877884417,0.1110759824514389,-9.70783519744873,-0.1583044975996017
4.205125093460083,-0.003480929415673,-2.658932498889044e-05,0.0034745170269161,0.1116530746221542,-9.686393737792969,-0.1179136782884597
4.210128545761108,9.72897032625042e-06,-2.658932498889044e-05,-1.6141464584507048e-05,0.1515748053789138,-9.666460037231444,-0.1366563886404037
4.21513295173645,9.72897032625042e-06,0.0034640692174434,0.0017291877884417,0.1310788840055465,-9.707500457763672,-0.1578779071569442
4.220136404037476,9.72897032625042e-06,0.0034640692174434,0.0034745170269161,0.1117371469736099,-9.705656051635742,-0.0983177572488784
4.225139617919922,9.72897032625042e-06,0.0017187398625537,-1.6141464584507048e-05,0.1307221800088882,-9.728215217590332,-0.1782732009887695
4.230144023895264,0.0017550581833347,-2.658932498889044e-05,0.0017291877884417,0.1309425681829452,-9.727489471435549,-0.1582775861024856
4.23514723777771,-0.0017356002936139,0.0034640692174434,-1.6141464584507048e-05,0.1309425681829452,-9.727489471435549,-0.1582775861024856
4.240150690078735,9.72897032625042e-06,0.0017187398625537,-1.6141464584507048e-05,0.1316559761762619,-9.68605899810791,-0.1174870878458023
4.245155096054077,9.72897032625042e-06,0.0017187398625537,0.0017291877884417,0.1314878314733505,-9.647533416748049,-0.1566788852214813
4.250158071517944,-0.0017356002936139,0.0034640692174434,-1.6141464584507048e-05,0.1314355880022049,-9.686784744262695,-0.1374826580286026
4.25516152381897,-0.0017356002936139,0.0052093984559178,-1.6141464584507048e-05,0.1117371469736099,-9.705656051635742,-0.0983177572488784
4.260165691375732,9.72897032625042e-06,-2.658932498889044e-05,-1.6141464584507048e-05,0.1509454697370529,-9.727153778076172,-0.1578509956598281
4.265168905258179,9.72897032625042e-06,0.0034640692174434,0.0034745170269161,0.1510295569896698,-9.746416091918944,-0.138255089521408
4.270172595977783,9.72897032625042e-06,0.0017187398625537,-1.6141464584507048e-05,0.1310266554355621,-9.74675178527832,-0.1386816799640655
4.275176525115967,9.72897032625042e-06,0.0034640692174434,-1.6141464584507048e-05,0.1506410092115402,-9.708617210388184,-0.1974425017833709
4.280179738998413,9.72897032625042e-06,0.0017187398625537,0.0017291877884417,0.1316559761762619,-9.68605899810791,-0.1174870878458023
4.285182952880859,9.72897032625042e-06,0.0034640692174434,0.0017291877884417,0.1115690022706985,-9.66713047027588,-0.1375095695257187
4.290187120437622,-0.003480929415673,0.0052093984559178,-1.6141464584507048e-05,0.1512181013822555,-9.687175750732422,-0.1570516526699066
4.295190334320068,-0.003480929415673,-2.658932498889044e-05,0.0017291877884417,0.1508613973855972,-9.707890510559082,-0.1774469316005706
4.300194501876831,9.72897032625042e-06,-2.658932498889044e-05,0.0034745170269161,0.1313833445310592,-9.72603702545166,-0.1182864308357238
4.305197715759277,-0.0017356002936139,0.0052093984559178,-1.6141464584507048e-05,0.1108033508062362,-9.74781322479248,-0.1591038554906845
4.310200929641724,-0.0017356002936139,-2.658932498889044e-05,-1.6141464584507048e-05,0.1108033508062362,-9.74781322479248,-0.1591038554906845
4.315205097198486,-0.0017356002936139,-2.658932498889044e-05,-1.6141464584507048e-05,0.1310788840055465,-9.707500457763672,-0.1578779071569442
4.320208311080933,-0.0017356002936139,-2.658932498889044e-05,0.0034745170269161,0.1313515156507492,-9.667522430419922,-0.1570785641670227
4.3252112865448,9.72897032625042e-06,-2.658932498889044e-05,-1.6141464584507048e-05,0.1113486140966415,-9.66785717010498,-0.1575051546096801
