timestamp,angular_velocity.x,angular_velocity.y,angular_velocity.z,linear_acceleration.x,linear_acceleration.y,linear_acceleration.z
0.1059117317199707,0.0003509152447804,-0.0006377478712238,0.0013207821175456,-0.4872304797172546,0.0778785273432743,9.823365211486816
0.11391258239746094,0.0006708810687996,0.0002202990581281,-0.0010157744400203,-0.472827136516571,0.0802957117557537,9.810596466064451
0.11791253089904785,-0.0015660277567803,-0.000418247655034,0.0001455396413803,-0.4986524581909179,0.072722338140012,9.797197341918944
0.12593770027160645,0.0015235117170959,0.0012878805864602,-0.0010137991048395,-0.4833177626132965,0.0732816159725201,9.776823043823242
0.12991952896118164,0.0004541391972452,0.0009645000100135,4.734843969345081e-05,-0.5005571842193604,0.0904874652624142,9.783034324645996
0.1339125633239746,0.0013006791705265,0.0009694710606709,-0.001098979730159,-0.4972203969955444,0.0933261960744869,9.783498764038086
0.1379237174987793,0.0028008327353745,0.0009714583866298,-0.0015451763756573,-0.5044182538986206,0.0865361839532864,9.809587478637695
0.1419205665588379,0.0013109662104398,0.0023551769554615,-0.0013282531872391,-0.4920000433921814,0.0864946246147167,9.819587707519531
0.145918607711792,2.6591820642352104e-05,2.8242589905857928e-05,-0.0009114774875342,-0.4886275231838226,0.0745386183261883,9.824295043945312
0.15393352508544922,-0.0022020426113158,0.0002187884529121,-0.0003864029422402,-0.5005744099617004,0.0847218185663235,9.792491912841797
0.1579127311706543,-0.0002942018909379,-0.0014764762017875,-0.0003866837359964,-0.4881541728973388,0.0812966972589504,9.800037384033203
0.1619126796722412,0.0006704761181026,0.0002225454081781,-0.001017372123897,-0.4828742146492004,0.0947060436010372,9.798260688781738
0.16591453552246094,0.0006684412946924,0.0007552777533419,-5.9397425502538776e-05,-0.4842819273471832,0.0866506844758999,9.786806106567385
0.17391252517700195,-0.0022230711765587,7.196154911071198e-06,0.0011051991023123,-0.5001840591430664,0.0669293925166142,9.808926582336426
0.17791271209716797,-0.0023160376586019,-0.0003072129911743,-0.0009084651246666,-0.4982299208641052,0.0764990225434315,9.800985336303713
0.1859116554260254,0.0008800160139799,-0.0003186730900779,0.0013213981874287,-0.4972598552703857,0.0860369205474865,9.81052303314209
0.18991565704345703,0.0012015972752124,-0.000956135103479,0.0011067106388509,-0.5058589577674866,0.0774201452732098,9.81567668914795
0.19791460037231445,-0.0017727770609781,0.0009604085935279,-0.0003818459808826,-0.5015190243721008,0.0746708661317837,9.79100227355957
0.20591330528259277,0.0007764713955111,0.0002174071269109,0.001098861452192,-0.4948195219039917,0.0770265236496937,9.789929389953612
0.2139444351196289,-0.0011421630624681,-0.0008516904781572,0.0013127662241458,-0.479529857635498,0.0845721662044537,9.82765769958496
0.21792149543762207,-0.0009241544175893,5.4644769988955295e-06,0.0010052542202174,-0.4877582192420959,0.0941357612609875,9.82278060913086
0.22203731536865234,0.0009849048219621,0.0021248913835734,0.0026083239354193,-0.5006036758422852,0.0740636214613926,9.814698219299316
0.22603535652160645,0.0016231263289228,0.0003148294636048,0.0027067684568464,-0.5044323205947876,0.0692748352885258,9.819891929626465
0.22994232177734375,0.0021598043385893,-0.0008459936943836,0.0001494637690484,-0.4895661175251007,0.0760300755500805,9.80568504333496
0.23391318321228027,-0.000597498146817,-0.0022199526429176,0.000458079855889,-0.4756674170494079,0.0894524306058895,9.777908325195312
0.23798632621765137,-0.0004998550284653,-0.0010523058008402,-0.0012399945408105,-0.4747073650360107,0.1024611145257961,9.776391983032228
0.24193048477172852,0.0026994261424988,-0.000199104018975,-0.001976559869945,-0.4790668785572052,0.0784134864807141,9.804332733154297
0.24592137336730957,0.0003534361021593,0.0021347147412598,-0.0005877781659364,-0.4804465770721435,0.0770375579595577,9.792388916015623
0.2500464916229248,-7.816392462700605e-05,0.0008499404066242,0.0019613462500274,-0.4924880564212799,0.0788143575191509,9.824687957763672
0.2539215087890625,-7.445621304214001e-05,-0.0010580676607787,3.374274820089353e-05,-0.4867429137229919,0.0797305852174771,9.826144218444824
0.25791335105895996,-0.0008224959019571,-0.0024405743461102,-0.0002854182384908,-0.4757189750671386,0.0864851623773586,9.820940971374512
0.2620384693145752,-0.0009144229115918,0.0014838804490864,-0.0005994620732963,-0.4790583550930023,0.0846420079469692,9.809056282043455
0.26592445373535156,-0.0010319290449842,0.001817172858864,4.82569448649881e-05,-0.47950279712677,0.0813439786434185,9.790973663330078
0.2700386047363281,-0.0009277957724407,-0.0013764450559392,-0.0003914907574653,-0.4847634136676788,0.0866595506668102,9.78006649017334
0.2739684581756592,-0.0003887902712449,-0.0003035410773009,-0.0006994935683906,-0.4928819835186004,0.0842964798212063,9.779057502746582
0.27791333198547363,0.0021636853925883,0.0004331568779889,-5.8204866945743615e-05,-0.4718207120895386,0.0818881765007984,9.775774955749512
0.28191232681274414,0.0008867077995091,-9.373354259878412e-05,-0.001239086035639,-0.4780628979206085,0.0914008691906941,9.793389320373535
0.28591251373291016,0.000460781273432,0.000442313903477,-0.0021872771903872,-0.48956099152565,0.0856237933039677,9.79855728149414
0.2899165153503418,0.0001623278949409,-0.000628033070825,-0.0023081069812178,-0.4977155029773712,0.0813568010926258,9.80483055114746
0.2979586124420166,0.0005588590865954,1.686450559646027e-06,0.0011081872507929,-0.4991437494754791,0.0779716968536388,9.798481941223145
0.3019134998321533,0.0013106004334986,0.0007564408006146,-0.0006954758428037,-0.506340742111206,0.0750413164496433,9.810811042785645
0.305919885635376,0.0014160909922793,0.0006481605814769,-0.0006951242685317,-0.4977225661277771,0.0789115950465214,9.801366806030272
0.31005358695983887,0.0005675761494785,0.0002281986526213,-0.0016580123919993,-0.4947786927223205,0.0776024460792553,9.77142333984375
0.3139359951019287,-0.0001802960177883,0.0022504532244056,-0.0018638430628925,-0.4986276030540466,0.0637346133589756,9.772772789001465
0.3179140090942383,0.0005646831123158,0.0003321940894238,-0.0016590536106377,-0.5029643774032593,0.0722381547093403,9.796064376831056
0.3220798969268799,0.0025816082488745,0.0008531499188393,0.0013288985937833,-0.5015267133712769,0.0760563239455235,9.798466682434082
0.32593560218811035,3.108428791165352e-05,0.0008597844280302,-0.000697296578437,-0.5130185484886169,0.073180064558984,9.801780700683594
0.32991695404052734,-0.0003969175741076,1.666136085987148e-06,0.0004649464972317,-0.4972192347049713,0.0712593942880642,9.7993745803833
0.33391499519348145,-0.0008175646653398,-0.0002028450253419,4.402827471494677e-05,-0.4909960031509399,0.0846893489360821,9.788066864013672
0.33792901039123535,-0.0004991953028365,-0.0005305299418978,0.0011023869737982,-0.4776118099689483,0.0889722406864178,9.797603607177734
0.34192419052124023,0.0003496540011838,0.0012809761101379,4.732236266136154e-05,-0.4885730147361755,0.0928020551800739,9.79952907562256
0.34593987464904785,-0.001141651533544,0.0006403727456927,0.0012138783931732,-0.5043699741363525,0.0785432532429707,9.77707862854004
0.34994959831237793,-0.0024190349504351,0.0011827669804915,-0.0002710372209548,-0.5120097398757935,0.0685278326272976,9.76318645477295
0.35391998291015625,-0.0017759271431714,-0.0005256562144495,-6.895232945680612e-05,-0.4942981600761413,0.0718557834625256,9.778519630432127
0.3579142093658447,0.0018419744446873,0.0010727692861109,-5.6494027376175056e-05,-0.5000750422477722,0.078514724969865,9.786576271057127
0.36191701889038086,-0.0001808409579098,0.0007522872765548,0.0002599945291876,-0.4976988136768341,0.0732263624668133,9.792236328125
0.3660449981689453,-0.0011380021460354,-0.0015867226757109,-0.0004967940039932,-0.48333740234375,0.079873561859132,9.80085563659668
0.36992788314819336,0.0011010102462023,-0.0012643220834434,-0.0015585818327963,-0.4905632436275482,0.0726808905601513,9.802237510681152
0.37392282485961914,-0.0006013734964653,1.101306406781061e-05,-0.0013390574604272,-0.495782196521759,0.0651165544986736,9.78653049468994
0.37792491912841797,0.0007773266406729,0.0006498395232483,-0.0013398779556155,-0.48617884516716,0.0684934705495846,9.77846336364746
0.38191699981689453,-0.0001814264105632,0.0014982150169089,-5.633523687720317e-05,-0.482835441827774,0.0718850940465939,9.768026351928713
0.38603901863098145,0.0006709713488817,0.0009643780067563,0.0001523359678685,-0.4857338964939117,0.0593506656587135,9.79405689239502
0.38991689682006836,0.0014146114699542,0.0011752551654353,0.0002619358710944,-0.4828845560550689,0.0789263695478451,9.803651809692385
0.39391398429870605,0.0015207116957753,4.689733032137227e-06,0.0005781482905149,-0.4986981153488159,0.0860280245542538,9.820283889770508
0.40192627906799316,-0.0016707435715943,0.0001126548741012,0.00014662835747,-0.48580002784729,0.088323011994363,9.83600902557373
0.4099280834197998,0.0004575124476104,0.000220532878302,-6.192736327648166e-05,-0.4962953925132751,0.0846065729856503,9.810789108276367
0.41394615173339844,0.0009910088265314,0.0017189891077578,-0.0018596206791698,-0.4981702268123626,0.0885312855243694,9.788018226623535
0.4179201126098633,0.000777012493927,0.0007589419838041,-0.0010238615795969,-0.4977279603481293,0.0904791057109844,9.791804313659668
0.4259171485900879,-7.362628821283579e-05,-0.0020131943747401,-0.0001791971735656,-0.4876286685466766,0.0895349383354199,9.781336784362791
0.4299170970916748,0.0006816510576754,-0.0020144137088209,-7.407879456877684e-05,-0.4842308759689331,0.0881993547081959,9.765623092651367
0.4379251003265381,0.0033059865236282,-0.0012531555257737,-0.0011304062791168,-0.4958076179027557,0.0883816704154026,9.830106735229492
0.4419260025024414,0.0019480577902868,-0.0005225536879152,-0.0008054007776081,-0.5264071226119995,0.0817819610238087,9.800740242004396
0.44992923736572266,-0.0008294016588479,-0.0008474732167087,0.0001461692154407,-0.482383131980896,0.076960287988187,9.806976318359377
0.4539222717285156,-0.000713457702659,-0.0001980031956918,-0.0016599094960838,-0.4929385781288147,0.0807681232690823,9.813095092773438
0.4579141139984131,0.0010933583835139,-0.0013630860485136,-0.000177283771336,-0.4842825531959533,0.084649369120599,9.808833122253418
0.46205711364746094,-0.0004988827276974,-0.0006236835033632,-0.0010266471654176,-0.4929173588752746,0.0707961916923534,9.799775123596191
0.46601128578186035,0.0003517025616019,0.0018164259381592,-0.0001572971232235,-0.494401603937149,0.070184573531152,9.826839447021484
0.4699251651763916,-0.0018860297277569,-0.0007367158541455,-0.000493777450174,-0.4843069016933441,0.0698102936148655,9.804954528808594
0.47391819953918457,-0.0012431382201611,-0.001156753511168,-0.0015619420446455,-0.5015558004379272,0.0817303135991108,9.811644554138184
0.48192524909973145,0.0005631110398098,0.0004305969341658,0.0002599423751235,-0.5049387812614441,0.0873857066035282,9.832563400268556
0.48595309257507324,-0.0015646258834749,-0.0008464105194434,0.0005700164474546,-0.5020306706428528,0.0869920402765286,9.813085556030272
0.4939901828765869,0.0008806648547761,0.0013808541698381,0.0018625389784574,-0.5029828548431396,0.0851349383592617,9.795520782470703
0.49803924560546875,-0.0013586881104856,-0.0006349108880385,0.0008806609548628,-0.5125012993812561,0.0871561318635952,9.780691146850586
0.505913496017456,3.1055882573127747e-05,0.0002252912381663,-0.0003829784691333,-0.499133437871933,0.0994888097047817,9.79744815826416
0.5099263191223145,0.0021685326937586,0.0012787379091605,4.185270518064483e-05,-0.5020282864570618,0.0927838385105145,9.80979824066162
0.5139143466949463,-0.0010276234243065,0.0021419655531644,-0.0006842771545052,-0.5115575790405273,0.0784557312726986,9.804040908813477
0.5220324993133545,-0.0011369040003046,-0.0017011517193168,0.0006704148836433,-0.4947945177555084,0.0771174877882015,9.775958061218262
0.5259683132171631,-0.001140198437497,-0.0005254229181446,0.0001455601304769,-0.4732680916786194,0.0799964666366589,9.774596214294434
0.5299174785614014,0.0015256779734045,0.0001228481996804,-0.0021931852679699,-0.4785447716712951,0.0718633234500897,9.773117065429688
0.5379364490509033,-0.000285196583718,-0.0010479764314368,-0.0019869650714099,-0.5039322972297668,0.0861195698380482,9.793548583984377
0.541919469833374,0.0005629840306937,-0.0006258863140828,-0.0003915792331099,-0.5005717277526855,0.085598185658456,9.80025863647461
0.5461053848266602,0.0002435828791931,-0.0006341128027997,0.0006806766614317,-0.5116567611694336,0.072045147418977,9.838164329528809
0.5539214611053467,-0.0011392566375434,0.0011810821015387,-0.0011227410286664,-0.4910401701927185,0.0831507742404949,9.820145606994627
0.5619175434112549,0.0006714906776323,0.0001142211840488,-0.0001680958084762,-0.4876540899276733,0.0865927040576946,9.795000076293944
0.5659213066101074,-0.0006070093950256,0.0002199237933382,4.326598718762395e-05,-0.475170761346817,0.1034495681524288,9.768967628479004
0.573937177658081,-0.0016689333133399,3.3707474358378854e-06,-0.0008074846118688,-0.4790515303611755,0.0876063406467449,9.777067184448242
0.5779144763946533,-0.0013564396649599,-0.0004241454880684,0.0011038854718208,-0.4914945960044861,0.0813284367322933,9.798294067382812
0.5859131813049316,-0.0005006976425647,0.0003277923678979,0.0002582198940217,-0.4733906984329223,0.059578023850919,9.848121643066406
0.5899133682250977,-7.512921001762152e-05,0.0017077515367418,0.0006902627646923,-0.4777164459228515,0.0810440331697476,9.856236457824709
0.5979404449462891,-0.0004975374322384,-0.0007325584301725,-0.0012372555211186,-0.4881198704242706,0.0832770615816128,9.78829288482666
0.6059184074401855,0.0030120112933218,0.0005261043552309,0.0018673189915716,-0.4871112406253814,0.0877662226557743,9.752246856689451
0.6139316558837891,-0.0007127778371796,0.0012818244285881,0.0005786526016891,-0.4886124432086944,0.0712947696447384,9.792497634887695
0.6180527210235596,0.0019471398554742,-0.0012779297539964,0.0017433753237128,-0.4819152355194092,0.0774696171283734,9.803004264831545
0.6220567226409912,0.0023705610074102,5.110923666507077e-06,0.0005817571654915,-0.4929501414299011,0.0736664384603512,9.798190116882324
0.6260457038879395,0.0002499396214261,0.0004416529554873,-0.0016549667343497,-0.5010344982147217,0.0679797083139431,9.78676414489746
0.629936695098877,0.0014168370980769,-9.90599510259928e-05,-0.0013362113386392,-0.4967395067214966,0.0775166973471653,9.793927192687988
0.6339263916015625,-0.0004954882897436,-0.0024292061571031,-0.0028426379431039,-0.4914825856685638,0.0985539779067051,9.793596267700195
0.6387507915496826,-0.0005393162136897,0.0014091320335865,0.0017152288928627,-0.4944641590118408,0.0880474448204052,9.793067932128906
0.6427106857299805,0.0006684901309199,0.0004269925120752,0.001108665484935,-0.499553918838501,0.0819317102432262,9.767776489257812
0.6467723846435547,-0.0013490685960277,0.0003232796443626,4.124734550714489e-05,-0.4876236617565155,0.0728128850460064,9.777223587036133
0.6508545875549316,-0.0004997696960344,-0.0002090003690682,0.0006797108799219,-0.4838058650493622,0.0722605586051952,9.792950630187988
0.6547307968139648,-0.0007125887786969,0.0003213596064597,0.0012143808417022,-0.4857636094093323,0.0649674683809292,9.81717586517334
0.6587176322937012,0.0004629581235349,0.0011824672110378,-0.0005871695466339,-0.4800423383712768,0.0664344206452381,9.813836097717283
0.6627078056335449,0.0013094418682157,0.0003264682018198,0.0001541269011795,-0.4919712543487549,0.0822509378194821,9.802471160888672
0.6667077541351318,0.000137613969855,-0.0009516305872239,0.0001432606950402,-0.5000803470611572,0.0851944684982311,9.785873413085938
0.6707255840301514,0.0007784273475408,7.127178832888622e-06,0.0001515550538897,-0.5067591071128845,0.0785589367151272,9.774399757385254
0.6747076511383057,-0.0013480290072038,0.0021430081687867,-0.0015459423884749,-0.5024402737617493,0.0766717344522488,9.76727294921875
0.6827077865600586,0.0003535754512995,0.0005370649741962,-0.0001688641496002,-0.4876349568367004,0.0670128837227833,9.78716278076172
0.690706729888916,-0.0014571953797712,0.0024541779421269,0.0002647298388183,-0.5049006938934326,0.0635672509670269,9.810423851013184
0.6987297534942627,0.001622560666874,0.000328186142724,4.446832463145252e-05,-0.4972152709960937,0.0683691352605831,9.803772926330566
0.7035548686981201,-0.0029081823304295,0.0019458545139059,-0.0013012089766561,-0.4826469123363495,0.0613028965890419,9.801152229309082
0.7115190029144287,0.0014150310307741,-0.0011642804602161,0.000997229013592,-0.4813836514949798,0.0752212107181561,9.77202606201172
0.7195298671722412,-0.0015678635099902,-9.791943011805418e-05,-0.0001715761609375,-0.4933622479438782,0.0915091186761868,9.762998580932615
0.7275228500366211,0.0031191715970635,0.0002208680962212,-5.637994036078456e-05,-0.4828789830207824,0.07363409548998,9.80571174621582
0.735522985458374,0.0003519357414916,0.0011767831165343,0.00036830175668,-0.4857951402664184,0.0558290295302879,9.829374313354492
0.7395288944244385,-7.018737960606813e-05,1.1129362974315795e-05,-0.0007001804187893,-0.4996314346790313,0.0808552652597439,9.79092502593994
0.7475438117980957,0.0024806344881653,-0.0017002329695969,-0.0003822976723313,-0.4855759143829345,0.0666669309139263,9.770203590393066
0.751518964767456,-0.0001833295682445,-0.0017035990022122,0.001424191519618,-0.4851256012916565,0.0633350014686596,9.768861770629885
0.7555069923400879,-0.0011296515585854,-0.0030826271977275,0.0005658399313688,-0.48178631067276,0.0676138997077953,9.777535438537598
0.7595407962799072,-0.0011409727158024,-0.0012758441735059,0.0013185846619307,-0.4741175174713135,0.072436884045602,9.764622688293455
0.763530969619751,0.0005598820280283,-0.0001049897982738,0.0010060262866318,-0.4903812408447265,0.0671577453613293,9.769783020019531
0.7675249576568604,-0.0012425474124029,-0.0010523154633119,-0.000807624310255,-0.4956986010074615,0.0775960236787808,9.784565925598145
0.7755048274993896,0.0002475494984537,0.000547333038412,-0.0017573239747434,-0.5009389519691467,0.0766577124595654,9.782644271850586
0.783531904220581,0.002055455930531,0.0004358405712991,-5.104253068566328e-05,-0.5076252222061157,0.0886360108852398,9.77507209777832
0.7915217876434326,-0.0012449452187865,-0.0016964359674602,0.0003599203191697,-0.467427909374237,0.069058269262315,9.770755767822266
0.7995309829711914,-0.0003940196475014,-0.0003177829785272,0.001003245357424,-0.4952243566513061,0.0818324387073528,9.799758911132812
0.8035340309143066,-0.0001775802811607,0.0008558075060136,-0.0005863485857844,-0.4894840121269226,0.066023573279382,9.805421829223633
0.8075041770935059,-0.001577689894475,0.001196350203827,-0.0013194270431995,-0.4892691373825073,0.0794616043567669,9.795799255371094
0.811514139175415,-0.0002929979236796,0.0009598054457455,0.000905676279217,-0.4884431958198547,0.0919636487960827,9.7957763671875
0.8155291080474854,-0.0006092495750635,0.0020263674668967,0.0013416945002973,-0.479345440864563,0.0919285118579876,9.810044288635254
0.8235821723937988,0.0020457571372389,0.0012941370951011,-0.0007716752588748,-0.4836959540843963,0.0758363008499157,9.786413192749023
0.8275201320648193,0.0008780512725934,0.0002072463976219,0.0004820995964109,-0.4840411841869354,0.0869331061840069,9.750584602355955
0.8355181217193604,-0.0016719825798645,0.0004330596420913,-5.370704457163816e-05,-0.4745726287364959,0.0656417161226284,9.798056602478027
0.8395521640777588,-0.0022049730177968,0.0006429143249988,-0.000156698282808,-0.4664401113986969,0.0527129657566559,9.798473358154297
0.8435301780700684,-0.0006148770917207,0.0013885796070098,0.0005882568657398,-0.4769890904426574,0.0616745464503777,9.822749137878418
0.847527027130127,0.0005641551688313,-0.0005248839734122,0.0001626284793019,-0.4812802672386169,0.0689694657921803,9.805213928222656
0.8555190563201904,0.0019506972748786,0.0003303721314296,-0.0006910567171871,-0.4621056914329529,0.0642257779836666,9.79142951965332
0.8635270595550537,-0.00028882548213,-0.0022302782163023,0.0002554883249104,-0.4721420407295227,0.0633617639541637,9.771448135375977
0.8715310096740723,0.0004553138278424,-0.0005285489605739,0.0005841432139277,-0.492277592420578,0.0967278778553021,9.798155784606934
0.8755171298980713,0.0023734206333756,-0.0016910949489101,-0.0009090858511626,-0.4984995126724243,0.0670741945505154,9.800848007202148
0.879655122756958,0.0012028574710711,-0.000413995468989,-0.001224486157298,-0.5095039010047913,0.0618494190275681,9.790839195251465
0.8835291862487793,0.0010987493442371,1.3585842680185844e-05,-0.0015421574935317,-0.5056614279747009,0.0637748986482632,9.786591529846191
0.887505054473877,-0.0018720892257988,0.0008606335613876,-0.0002590813674032,-0.4875694811344147,0.0665918961167347,9.78862476348877
0.8915050029754639,-0.0003955650608986,-0.0001033003209158,0.0007944414392113,-0.4889159202575683,0.0790855512022984,9.784293174743652
0.8955261707305908,-0.0002935068914666,-0.0001084796967916,0.0019651395268738,-0.4913040399551391,0.0618954673409474,9.776667594909668
0.8995401859283447,0.0005575919058173,0.0013768322532996,0.0030408045276999,-0.4860088229179382,0.0748666897416126,9.762904167175291
0.9035346508026123,0.0001390024553984,-0.0008462512632831,0.000156641472131,-0.4831594824790954,0.075771063566209,9.777156829833984
0.9075055122375488,-0.0013526672264561,0.0007544570835307,-0.0006937882862985,-0.4779450893402099,0.0756918638944637,9.790445327758787
0.9115176200866699,-0.0003885900368914,-0.0004211091436445,0.0004757475107908,-0.4794700443744659,0.0794201642274868,9.823246955871582
0.9155144691467285,-0.0014642371097579,-0.0006335243815556,4.912959411740311e-05,-0.4855528473854065,0.0699081122875225,9.808058738708496
0.9236505031585693,0.0004564359551295,0.0013864289503544,0.0003801686689257,-0.5008936524391174,0.0814317762851727,9.79377555847168
0.9275305271148682,0.0009963584598153,-0.0007339247968047,0.0002708043903112,-0.4947410523891449,0.0780096501111996,9.803295135498049
0.9355185031890869,0.000666007574182,0.000640116224531,0.0015489347279071,-0.4879434704780578,0.0820305198431027,9.770980834960938
0.9435544013977051,-0.0012514542322605,0.0009525265195406,0.0001718923449516,-0.4894046485424042,0.0776237845420849,9.801822662353516
0.9515175819396973,0.0021545842755585,-0.0006294904160313,0.0003735250793397,-0.4870404601097107,0.0737444385886204,9.79852294921875
0.9595274925231934,-0.0008201440796256,0.0004317977291066,0.0003721034154295,-0.4880191683769226,0.0841946080327046,9.816604614257812
0.9675276279449463,0.0002444409765303,0.0020232694223523,0.0013371231034398,-0.4903815388679504,0.0809343010187161,9.79710865020752
0.9755074977874756,0.001094679813832,-0.0006370975170284,0.0011150077916681,-0.485573261976242,0.0719243064522755,9.779019355773926
0.9835364818572998,-0.0012435980606824,0.0004361098981462,-0.0011180280707776,-0.4789316654205322,0.0803764760494244,9.817051887512209
0.9915306568145752,-0.0011391593143343,-0.0022288702894002,0.0002522030845284,-0.4990302920341491,0.1033254116773617,9.816655158996582
0.9955625534057617,-0.0011331974528729,-0.0015817517414689,-0.0009256065823137,-0.4979946613311767,0.1043615341186535,9.796164512634276
0.9995276927947998,0.0002505800221115,-0.0014911610633134,4.892563447356242e-05,-0.4764224886894226,0.1010403409600269,9.795894622802734
1.007519006729126,0.0007795196725055,-0.0012640251079574,-0.0016518486663699,-0.4936929941177368,0.0862839519977581,9.776196479797363
1.0155208110809326,-0.0006086216308176,0.0010656948434188,0.0013343575410544,-0.4960917234420776,0.0757643505930912,9.77134895324707
1.0235357284545898,-0.0004952327581122,0.0019211898325011,6.117299199104286e-05,-0.5037911534309387,0.0726615190505993,9.82793140411377
1.031517744064331,-0.0014650630764663,0.0014850748702883,0.0003642439842224,-0.4703483581542969,0.0680762678384792,9.795310020446776
1.0355079174041748,0.0010942353401333,-0.0008536163950338,0.0019658585079014,-0.4702941179275512,0.0741836279630673,9.805574417114258
1.0395429134368896,-0.0010355052072554,0.0010636216029524,0.0018632006831467,-0.494207501411438,0.0714250132441532,9.78136157989502
1.0435259342193604,-0.0002857993822544,0.0016048373654484,-0.0003701099194586,-0.4918259978294372,0.0766693428158772,9.788530349731444
1.0475337505340576,-0.0001807431690394,-0.0008448888547718,0.0002595572732388,-0.4894346296787262,0.0809584408998501,9.790898323059082
1.0516409873962402,0.0002465315628796,-0.0005196424899622,-0.0011219256557524,-0.4822688400745392,0.0670434087514889,9.799398422241213
1.0555195808410645,0.0003616041503846,0.0025856138672679,-0.0014510657638311,-0.4856070280075073,0.0684866011142742,9.813359260559082
1.05952787399292,-0.0015640765195712,0.001810495276004,7.619056850671747e-05,-0.4828168153762817,0.0707324594259274,9.814547538757324
1.063525915145874,-0.0016678252723067,0.0011974854860454,-0.0016560442745685,-0.4851627051830292,0.0797983407974255,9.82857894897461
1.0675368309020996,-0.0003966980148106,-0.0003178345505148,0.0008996636606752,-0.4923083186149597,0.0761592686176312,9.791834831237791
1.071518898010254,2.9871822334826e-05,0.0005271486588753,0.0022843107581138,-0.499476283788681,0.0814046263694775,9.79468059539795
1.0755257606506348,-0.0011406320845708,0.0008541411953046,0.0006931396201252,-0.4980400800704956,0.0766766667366039,9.784680366516112
1.0796527862548828,-0.0017753522843122,0.0026739777531474,-0.0014325813390314,-0.4793987572193146,0.09765623509884,9.802400588989258
1.083533763885498,-6.927619688212872e-05,8.606642950326131e-06,-0.0005911234766244,-0.4731552004814148,0.1072694659233105,9.792939186096191
1.0875177383422852,-0.0001915909815579,-0.0005295073497109,-0.0001600915566086,-0.4722309112548828,0.0995998308062565,9.786657333374023
1.0915157794952393,-0.0002853327896445,0.0007483058143407,0.0004814430139958,-0.4722335338592529,0.0937844291329395,9.808539390563965
1.0955357551574707,-0.0014531215419992,0.0017172364750877,0.0007943022064864,-0.4851132929325104,0.0837311148643505,9.81043815612793
1.0995275974273682,-0.0006085521308705,-0.0006275669438764,-0.0006939442828297,-0.4928226768970489,0.0851370692253124,9.818939208984377
1.1035430431365967,0.0015250165015459,-0.0001983706024475,-0.0016515273600816,-0.4947168827056885,0.0828043669462216,9.803712844848633
1.1075141429901123,0.000569716328755,-0.0010505057871341,-0.0015502776950597,-0.4956954717636108,0.0846360176801693,9.817489624023438
1.1115541458129883,-0.0004926223773509,-0.0006136603769846,-0.0012172381393611,-0.4808351099491119,0.0846475362777722,9.808915138244627
1.1155040264129639,0.0002502194838598,0.0002155381371267,0.0004765158519148,-0.4808454215526581,0.083322435617448,9.801346778869627
1.119610071182251,0.0018418994732201,0.0014954799553379,0.0003779963590204,-0.4842084646224975,0.0899667367339146,9.806134223937988
1.1236920356750488,-0.0001809644745662,0.0025657708756625,-0.0011101849377155,-0.4951796233654022,0.0847981944680225,9.786105155944824
1.1275169849395752,0.0005643441108986,0.0003258762299083,5.203951150178905e-05,-0.5081104040145874,0.0823492556810391,9.797049522399902
1.1315181255340576,-0.0003939488669857,-0.0018047557678073,0.0003599212504923,-0.5000149607658386,0.0889380872249615,9.82034969329834
1.1395740509033203,0.0004640033002942,-0.0008575117099098,0.0004586982540786,-0.5067273378372192,0.077913820743562,9.821706771850586
1.1435210704803467,-0.000503008137457,-0.0021228604018688,-0.0001683579757809,-0.4975950121879577,0.0799052566289913,9.816986083984377
1.1515350341796875,-0.001671488629654,-0.0016889994731172,4.630163311958334e-05,-0.5066667795181274,0.0895269811153423,9.79899787902832
1.159532070159912,-0.0011406710837036,-0.0001067335833795,0.0015370300970971,-0.4904209971427917,0.0646367967128765,9.800308227539062
1.1675260066986084,0.0023737899027764,0.0013878673780709,0.0003784443251788,-0.4985604286193847,0.0736929923295986,9.80699062347412
1.175504207611084,-0.0006173208821564,0.0020463538821786,-0.001118840649724,-0.4803201258182525,0.0821919217705738,9.8389310836792
1.1835341453552246,-0.0004969830624759,-0.0016909904079511,-0.0010215286165475,-0.4855848848819732,0.0872244834899914,9.777144432067873
1.191519021987915,-0.0006020786240696,0.000548243522644,-0.0022902842611074,-0.4827335178852081,0.0848223417997372,9.778078079223633
1.1995270252227783,-9.760388638824224e-05,0.0035959221422672,0.0015552174299955,-0.4911937415599823,0.0805537998676312,9.76930809020996
1.2035253047943115,-0.0005015135975554,0.0005407781573012,-0.0003719953820109,-0.4970957040786743,0.0771470665931713,9.779891967773438
1.2075252532958984,0.0001423781504854,0.0005417421925812,-0.0011199349537491,-0.5004595518112183,0.0732335299253475,9.805986404418944
1.2155213356018066,0.0010971057927235,0.000543178175576,-0.0009059887379407,-0.5086532235145569,0.0587711073458206,9.83110237121582
1.2235260009765625,-0.0009253709577023,-0.0005331945139914,0.0014294837601482,-0.4889623522758484,0.0689997673034679,9.784615516662598
1.2275073528289795,-0.0010229514446109,0.0007392335683107,0.0012352177873253,-0.4860511422157287,0.072388142347337,9.75658893585205
1.2315165996551514,0.0014148004120215,-0.0015950123779475,0.0010021734051406,-0.4975372850894928,0.076300084590913,9.757588386535645
1.235565185546875,0.0003297567600384,-0.0012560377363115,-7.542828097939476e-05,-0.4999323189258575,0.0730382055044186,9.754393577575684
1.239546298980713,-0.0002708479296416,0.0013986468547955,-0.001327957957983,-0.5081176161766052,0.0779953524470341,9.796182632446287
1.2435359954833984,-0.0022024493664503,0.0023445587139576,0.0004821410402655,-0.4990794062614441,0.0755292996764195,9.823142051696776
1.2475214004516602,-0.0015622621867805,0.001502149971202,-0.0006953403353691,-0.4947884380817413,0.0869339257478726,9.836477279663086
1.2516193389892578,0.0018439017003402,0.0016055135056376,-0.0007920507341623,-0.4952201545238495,0.091882959008218,9.80325984954834
1.255530595779419,0.0002512600040063,0.0021410933695733,-0.0007977141067385,-0.4923880696296692,0.0856730192899716,9.803114891052246
1.2595183849334717,0.0010955941397696,0.0003205288085155,0.0011164932511746,-0.4803911745548248,0.0866259783506405,9.801856994628906
1.263533353805542,-0.0003971185069531,-0.0002178134163841,0.0026027346029877,-0.4908799529075622,0.0900969654321682,9.774755477905272
1.2675223350524902,0.0014092635829001,0.0008615787955932,-0.0007848925888538,-0.5018491744995117,0.0762568265199673,9.772315979003906
1.2715022563934326,0.0009974827989935,-0.0002022618427872,-0.0016507918480783,-0.4951900541782379,0.0594240166246903,9.783637046813965
1.275503396987915,0.0004573635524138,-0.001161171705462,0.0004557943902909,-0.4976082146167755,0.0750838071107876,9.807916641235352
1.2795259952545166,0.002691791858524,-0.0002132498775608,0.0017532715573906,-0.5138967633247375,0.070797197520734,9.811695098876951
1.283519983291626,0.0021806340664625,-0.0013710013590753,-0.0016460323240607,-0.5048778653144836,0.0683873668313038,9.82639503479004
1.287520408630371,-7.313315290957689e-05,-0.0018013161607086,-0.0007065618410706,-0.4923592507839203,0.0650435388088238,9.814078330993652
1.2955193519592285,-6.957794539630413e-05,-0.0002019443199969,-0.001336011569947,-0.4899609684944153,0.0870814174413693,9.805150985717772
1.2996573448181152,0.0005650471430271,0.0015934302937239,0.000798862427473,-0.4803646802902221,0.0891587138175976,9.77390956878662
1.303541898727417,-0.0002895473735406,0.0007445778464898,0.0010071205906569,-0.4755720496177673,0.077624022960664,9.77805995941162
1.311511754989624,0.0016405046917498,0.0011757060419768,-0.0018484541215002,-0.4837071597576141,0.0741843432188046,9.79166316986084
1.3195528984069824,0.0007788441143929,0.0002215130953118,-0.0008001960813999,-0.4985982179641723,0.0703007727861416,9.815515518188477
1.3275187015533447,0.0004571212921291,0.0009573657880537,0.0014379490166902,-0.4856407046318054,0.0737539976835262,9.78988552093506
1.3315188884735107,-0.0002858949592337,-0.0007371103274635,-0.0006998861208558,-0.4813019037246704,0.0757572352886211,9.76949405670166
1.339538812637329,0.0011025832500308,-0.0017900568200275,0.0003620935603976,-0.4712221622467041,0.0616484060883534,9.744853973388672
1.343524694442749,0.0012042277958244,-0.0025541686918586,0.0008919015526771,-0.4807887077331543,0.0643912702798855,9.743764877319336
1.3515188694000244,0.0022689087782055,0.0014966269955039,-0.0008988557383418,-0.4961493611335754,0.0718791335821163,9.78131103515625
1.3555138111114502,0.0007831348921172,0.0013004920911043,-0.0025065820664167,-0.4890049695968628,0.066618710756303,9.779390335083008
1.3595168590545654,0.0009803372668102,-0.0002271482371725,0.0020624310709536,-0.4832289516925812,0.0842047184705746,9.79182243347168
1.3635246753692627,-0.0001798641169443,0.0013882012572139,-5.2599236369133165e-05,-0.485148161649704,0.0853030085563671,9.77521800994873
1.3676018714904785,0.0003657637862488,-0.0008358706836588,-0.0012331851758062,-0.4831992387771606,0.0872970670461666,9.773112297058104
1.3716309070587158,-0.0012450469657778,-0.0010606800206005,0.0001493580639362,-0.4846909046173095,0.0694358497858059,9.7903413772583
1.3755269050598145,0.0005627257050946,0.0001048895064741,0.0013232473284006,-0.4832180142402649,0.0724001079797756,9.772305488586426
1.38352370262146,-0.0013551097363233,-0.0006486720521934,0.0032354518771171,-0.4904161095619201,0.0929371714591991,9.779521942138672
1.391514778137207,0.0001410685945302,0.0008599822758696,-0.0008001304231584,-0.4990655779838562,0.0712982118129742,9.804101943969728
1.395500898361206,-0.0002674754941835,-0.0020173266530036,4.421127960085893e-05,-0.5048859119415283,0.0641240850090992,9.81635284423828
1.399519681930542,0.0005620281444862,-0.0009576064767315,0.0011072647757828,-0.4885561764240265,0.0750823169946682,9.81080150604248
1.4035286903381348,0.0029157469980418,0.0024544540792703,0.0013434272259473,-0.4885687828063965,0.0813852101564419,9.790908813476562
1.4083094596862793,0.0012550700921565,0.0009610242559574,-0.0002310858108103,-0.4713591337203979,0.0773923099040997,9.781996726989746
1.4123055934906006,0.0001410056138411,-0.000420995929744,0.0002611042000353,-0.4860499501228332,0.0844432562589657,9.74911880493164
1.416304588317871,0.0001419900218024,-0.0007302308804355,-0.0029370230622589,-0.486088752746582,0.0891634523868572,9.761385917663574
1.4243237972259521,0.0005576161202043,-0.0024429026525467,-0.0012341453693807,-0.5019902586936951,0.0689324587583553,9.79155731201172
1.4283194541931152,-0.0013436344452202,-0.0016934799496084,-0.0021928960923105,-0.5024306178092957,0.0798169523477566,9.814091682434082
1.4363036155700684,-0.0004981267265975,-0.0004147494328208,-0.0011275876313447,-0.4948253631591797,0.0811839923262608,9.840262413024902
1.4403076171875,-0.000493544852361,-0.0004232535720802,-0.0007048426195979,-0.4766084551811218,0.077035501599313,9.801824569702148
1.4443254470825195,0.0007800259045325,0.0022521328646689,-0.0025997643824666,-0.4899557828903198,0.0660389810800564,9.807879447937012
1.4483294486999512,0.0022659327369183,0.0003205699031241,0.0007914034649729,-0.4937976598739624,0.0579669997096073,9.790277481079102
1.4563014507293701,-0.000602411921136,0.0003314700443297,-0.0015507750213146,-0.5000007152557373,0.08141689002514,9.786558151245115
1.4603064060211182,0.0008861685055308,0.0013886070810258,0.0003716703504323,-0.4923603534698486,0.0789888352155697,9.794144630432127
1.4683303833007812,-0.0021014334633946,0.0003069626982323,0.0007905489765107,-0.5101044178009033,0.0927847921848309,9.816118240356444
1.4723036289215088,-0.0008184800390154,0.0006467386847361,0.0001542354002594,-0.5119867324829102,0.0890124887228024,9.798441886901855
1.476304531097412,3.334437496960163e-05,0.0005345822428353,0.0003679366782307,-0.5048294067382812,0.0775310546159756,9.806966781616213
1.4803194999694824,-0.0015600111801177,0.001077783294022,-0.0020669787190854,-0.4885928928852081,0.0656003206968319,9.781805038452148
1.4843254089355469,0.0003512450493872,0.0018217866308987,-0.0014288774691522,-0.4880453944206238,0.066105715930463,9.795095443725586
1.4883131980895996,0.0016305739991366,0.0019212150946259,-0.0001571234315633,-0.4903963208198547,0.0671653375029575,9.7627592086792
1.4963164329528809,-0.0013528862036764,-0.0011763619258999,0.0023871278390288,-0.5014357566833496,0.0704148113727581,9.78742218017578
1.5043361186981201,-0.0010324369650334,0.0007458744803443,0.001002290751785,-0.4870923161506653,0.0722269564867031,9.810762405395508
1.5083141326904297,0.0006632845033891,-0.0012643674854189,0.0011004526168107,-0.4756045937538147,0.0593642927706253,9.812158584594728
1.5123169422149658,3.997597377747297e-05,0.0006043409230187,0.0011194627732038,-0.4859576225280761,0.0599094144999992,9.794951438903809
1.5203261375427246,-0.0010377444559708,-0.0021287591662257,0.0006788927130401,-0.4903403520584106,0.0771223902702343,9.79344081878662
1.5283079147338867,-0.0020972122438251,0.0010648346506059,0.000902640633285,-0.4961251020431518,0.072277255356313,9.808150291442873
1.5323100090026855,0.0003534060670062,-0.0010565756820142,-0.000269778072834,-0.4970965981483459,0.0736890062689793,9.814805030822754
1.536412000656128,0.0001351252431049,0.0008599725551903,-0.0020780768245458,-0.4956037998199463,0.0866220295429241,9.80397129058838
1.5443189144134521,-0.0024141066242009,0.0004309359646867,-0.0008029323071241,-0.4922884106636047,0.0928670316934597,9.802492141723633
1.552319049835205,0.000560043612495,-0.0001047971309162,0.0012199217453598,-0.4841761291027069,0.0880764275789273,9.805880546569824
1.5603089332580566,-0.0015625427477061,0.0006474641850218,-0.0011201011948287,-0.4908657968044281,0.0842505469918263,9.8058443069458
1.5683209896087646,-0.0011403539683669,-0.0011719425674527,0.0011069504544138,-0.4822540283203125,0.0971651226282131,9.80495834350586
1.57230806350708,-0.0016742474399507,-0.0003171681892126,0.0004742825403809,-0.4779486358165741,0.084707409143449,9.811083793640137
1.5803139209747314,0.0006713122711516,0.0014943970600143,5.77489845454691e-05,-0.4884701669216156,0.0761359781026852,9.800580024719238
1.584317922592163,0.0007781120948493,-0.0001006073434837,-0.0004822220653295,-0.4932380318641662,0.0737849771976482,9.792020797729492
1.5883090496063232,0.0007781984750181,0.0013922854559496,-0.0015394249930977,-0.4827113747596741,0.0761616528034222,9.791082382202148
1.592320203781128,0.0026918919757008,0.0015968908555805,0.0005702301859855,-0.4856122136116028,0.0762141644954693,9.796812057495115
1.6003141403198242,0.0021653673611581,-9.01861931197349e-05,-0.0031415286939591,-0.5008769035339355,0.0810064449906361,9.78158950805664
1.6043305397033691,0.0002455824287608,0.0027674157172441,0.0002744966186583,-0.5004281997680664,0.080910198390485,9.79963493347168
1.6084315776824951,-0.00102921272628,0.0006475439295172,-0.0006954493001103,-0.4927993416786194,0.0770591497421276,9.81148624420166
1.612351655960083,-0.0012450912036001,0.0005356246838346,-0.0003751832991838,-0.4894441366195678,0.0995166897773754,9.813998222351074
1.6163074970245361,-0.0011381204240024,0.0012772313784807,0.0006912220269441,-0.4861194491386413,0.0899342373013508,9.8158597946167
1.6243271827697754,0.0009881368605419,-0.0011678466107696,-0.0011092075146734,-0.4933543801307678,0.076115168631078,9.809112548828123
1.6283094882965088,-0.0002829664153978,0.0022457344457507,-0.0013302699662745,-0.4899364709854126,0.0832953229546559,9.8058500289917
1.6324083805084229,-0.0006082194158807,-0.0016028103418648,0.0022725639864802,-0.4860825538635254,0.0799616277217876,9.79875373840332
1.6411151885986328,-0.0007109066937118,0.0004337014979682,-0.0012286137789487,-0.4879827499389648,0.0770880579948437,9.801082611083984
1.6451416015625,-6.650038994848728e-05,0.0013764888281002,5.41196204721926e-05,-0.4811445474624634,0.0732644125819218,9.795846939086914
1.6492486000061035,-0.0008272002451121,0.0012811357155442,0.0005808505229651,-0.4800040423870086,0.0717921480536473,9.809643745422363
1.6532444953918457,-0.0002818003995344,-0.001050918828696,-0.0020835967734456,-0.4894323945045471,0.0761180073022854,9.809128761291504
1.6611135005950928,-0.0012466767802834,0.000105406390503,0.0010034395381808,-0.4707794189453125,0.0780526846647274,9.798255920410156
1.665919542312622,0.0005478194216266,-0.0005478245439007,3.0466821044683524e-05,-0.479288786649704,0.0893265008926403,9.790935516357422
1.670776605606079,-0.0013108163839206,-0.0014225081540644,-0.0016637155786156,-0.4860731363296509,0.0917391628026974,9.788541793823242
1.6747045516967773,-0.0003926350036635,0.001713435864076,-0.0003864201717078,-0.4832057058811188,0.0834163427352917,9.792951583862305
1.6827094554901123,-0.0015520397573709,0.0006476547569036,-0.001219977159053,-0.4755914807319641,0.0651416629552853,9.817242622375488
1.6867005825042725,-0.0002910566981881,0.0012855632230639,-0.0005860100500285,-0.4813434481620788,0.065939784049989,9.835220336914062
1.690704584121704,-0.0007107330020517,-0.0007447842508554,0.0001454083248972,-0.488062709569931,0.0706872269511234,9.83813190460205
1.6947064399719238,-0.0013525511603802,-0.0003172670258209,4.475843161344532e-05,-0.4861175715923309,0.0713137835264218,9.808186531066896
1.698765516281128,0.0004600937245413,-0.0003120702458545,-0.0012306850403547,-0.4884849190711975,0.0780648589134228,9.794906616210938
1.7027006149291992,0.0019585858099162,-0.0019091822905465,-0.0022057755850255,-0.4799195230007171,0.0851644873619091,9.800552368164062
1.7067031860351562,0.0022652363404631,-0.0006381768034771,0.0008960934355854,-0.4812754392623901,0.0833641290664684,9.791219711303713
1.7107183933258057,0.0020549688488245,0.0003272696048952,-0.0016536142211407,-0.4985054135322571,0.067086659371854,9.780572891235352
1.7147424221038818,0.0018416423117741,0.0015984389465302,0.000269487965852,-0.4951756000518799,0.0833238884806644,9.793977737426758
1.7188472747802734,0.002051981864497,0.0012843133881688,-0.0017599298153072,-0.4779623448848724,0.077494114637376,9.816365242004396
1.7227423191070557,-0.0015615270240232,-0.0002097060787491,-0.0004884791560471,-0.4808880686759949,0.0827333033084881,9.82296371459961
1.726703405380249,0.0001361209433525,0.0006393040530383,-0.0002666260115802,-0.502866804599762,0.0918689966201794,9.816829681396484
1.7307074069976807,-0.0019745584577322,0.0009639844647608,-0.0007042437791824,-0.502892255783081,0.0698616802692425,9.791089057922363
1.738725185394287,0.0001427953829988,0.0009701965609565,-0.0022909317631274,-0.4898765981197357,0.0595309883356106,9.767271041870115
1.7427382469177246,-0.0002794354222714,0.0007541426457464,-0.0007193242199718,-0.4940650463104248,0.0554718747735035,9.765274047851562
1.7467124462127686,0.0002510012127459,-0.0003191228024661,0.0009801350533962,-0.4907442033290863,0.0678649768233311,9.775301933288574
1.7507143020629883,-0.0017732841661199,0.0002181162126362,2.0124949514865848e-05,-0.4878588914871216,0.062166739255191,9.77047634124756
1.754725456237793,-0.0013359648874029,0.0001090002479031,0.0011951671913266,-0.4840439558029175,0.0662797391414654,9.800203323364258
1.7587144374847412,-0.0011220764135941,0.0001267964835278,3.734603524208068e-05,-0.493160605430603,0.0646206289529812,9.859312057495115
1.762704610824585,-0.0029382845386862,-0.0021183085627853,-0.0007367562502622,-0.4923134744167328,0.0799215063452732,9.85894775390625
1.7667033672332764,-0.0010276237735524,-0.0007381330942735,-0.0005145310424268,-0.4898493885993957,0.0776632428169262,9.832788467407228
1.770707368850708,0.0004615775542333,0.0010568480938673,0.0022662682458758,-0.5017387270927429,0.0706592947244656,9.79861068725586
1.7747066020965576,0.0012045931071043,0.0007433208520524,0.0015303674153983,-0.4991392791271209,0.0670230686664593,9.775291442871094
1.7787144184112549,0.0014180100988596,-0.0010608490556478,0.0002498757094144,-0.5120821595191956,0.0727881640195858,9.776703834533691
1.78670334815979,-0.0012401309795677,-0.0019108748529106,0.0003515873104333,-0.4948360919952392,0.0741331055760395,9.801495552062988
1.7947113513946533,-7.210311014205217e-05,-0.000422581739258,0.0004583811387419,-0.5002021193504333,0.0749295428395283,9.82900047302246
1.7987143993377686,0.0003547761589288,0.0001080969232134,-0.0003896858543157,-0.5011488199234009,0.0773302540183079,9.82474136352539
1.8067057132720947,0.0006704826955683,-0.0020310138352215,0.0021498478017747,-0.4752949476242065,0.0912234783172619,9.827678680419922
1.8107423782348633,-0.0003932308172807,-0.0013858638703823,0.0014120624400675,-0.4695157408714294,0.0970911383628857,9.791598320007324
1.8187170028686523,-0.0010349187068641,-0.0004248264012858,0.0013060048222541,-0.47139772772789,0.0951893329620373,9.788796424865724
1.8228375911712646,-0.001129928510636,-8.857646025717298e-05,-0.0031598152127116,-0.4690479636192322,0.0889339521527302,9.79868221282959
1.8268415927886963,0.0005703750066459,-0.0010584491537883,0.0005505471490323,-0.4748390913009643,0.0735660865902912,9.826165199279783
1.8347516059875488,-0.0001723519526422,-0.0001138072111643,0.0001269136555492,-0.4853969812393188,0.0850172936916363,9.805789947509766
1.838721752166748,-0.0007127992575988,-0.0029745097272098,-0.000606317538768,-0.4872517585754394,0.0874792858958256,9.825750350952148
1.8467249870300293,-0.0009276510681957,-4.159461241215268e-06,0.0016306787729263,-0.509689211845398,0.0803735852241528,9.78953456878662
1.8507707118988037,0.0017405862454324,0.0002191878156736,-0.000492250546813,-0.5000928640365601,0.0827718228101742,9.790042877197266
1.8547236919403076,0.0038698452990502,0.0002121760044246,-5.881441757082942e-05,-0.4775730967521667,0.0803662016987812,9.776705741882324
1.8587167263031006,0.0016332388622686,0.0021385960280895,-0.0019826383795589,-0.4924842715263366,0.0808324590325367,9.797642707824709
1.8667056560516357,-0.0002877410734072,-0.0004157286603003,-0.0007084552198648,-0.4963892698287964,0.0721404850482952,9.824254035949709
1.8707315921783447,0.001216888660565,0.0016987866256386,-0.0028224259149283,-0.4943960905075073,0.0635338947176945,9.830696105957031
1.8747057914733887,0.0005715645384043,0.000437263312051,-0.0015622195787727,-0.498819500207901,0.0657545924186718,9.842243194580078
1.8787167072296143,-0.0023079826496541,0.0013931355206295,-0.0011320542544126,-0.478653073310852,0.0726033598184597,9.81474494934082
1.8827056884765625,-0.0009209251729771,-0.0005285013467073,0.0001363065093755,-0.4776508808135986,0.0765293538570416,9.791943550109863
1.8867056369781494,0.0013138120993971,-0.0004069930873811,-0.0018797232769429,-0.4752593636512756,0.0875097662210476,9.79579734802246
1.8947126865386963,0.0006752674817107,0.0010740319266915,-0.0007032831199467,-0.5150173902511597,0.0707401037216198,9.80704116821289
1.9027047157287598,0.0014126092428341,0.0019150578882545,0.0012150108814239,-0.505386471748352,0.0871119722723972,9.78054141998291
1.9067046642303467,-0.0010342228924855,0.002549935830757,0.0019606528803706,-0.4934356808662414,0.0722965821623814,9.77761173248291
1.9147145748138428,0.0040840334258973,-9.443028829991842e-05,-0.0019848244264721,-0.4666392803192138,0.0707616955041897,9.794297218322754
1.926727533340454,4.1889259591698647e-05,-0.0013855329016223,-0.0014670994132757,-0.4953328371047973,0.0631812810897839,9.79746437072754
1.9307057857513428,0.001740796258673,-0.0013834867859259,0.0002488871105015,-0.5101950764656067,0.0703346431255352,9.791841506958008
1.9347097873687744,-0.0007107231067493,0.0001101156813092,3.555882722139357e-05,-0.4933967292308807,0.0737814605236065,9.767660140991213
1.9387156963348389,0.0001432889839634,-0.000105032173451,0.0003513731062412,-0.4905886352062225,0.069324091076852,9.79469394683838
1.9427177906036377,0.0016292841173708,-0.0018074917607009,0.0003489051014184,-0.4877293705940246,0.0740203112363827,9.817999839782717
1.9468495845794678,3.0355527997016907e-05,-0.0017052183393388,0.0014099506661295,-0.4901536107063293,0.0787633657455456,9.82893180847168
1.9547107219696045,-0.0011439780937507,-0.0016030394472181,0.0002255663275718,-0.4967756271362304,0.0693481266498577,9.775157928466797
1.9587206840515137,0.0011004987172782,-0.0002060600672848,-0.0010267868638038,-0.4881445169448852,0.0818446576595318,9.780491828918455
1.9627087116241455,3.580667544156313e-05,5.583104211836953e-06,-0.0008173556998372,-0.4896236062049866,0.0817403495311749,9.80614185333252
1.9707098007202148,-0.0011363315861672,-0.0024484524037688,0.0004472793079912,-0.5039767026901245,0.0855681449174893,9.8032808303833
1.9747047424316406,0.0010968917049467,-0.0006400490528903,0.0007795551791787,-0.4910876750946045,0.0835485011339199,9.826082229614258
1.9787156581878662,0.0023764688521623,-0.0010673434007912,0.0009911037050187,-0.500654399394989,0.080179274082185,9.833687782287598
1.9867355823516846,-0.0004878066247329,-0.0012717763893306,-0.0016791317611932,-0.4891216158866882,0.0864710360765469,9.810873031616213
1.9947423934936523,-7.0932786911726e-05,0.0002129172789864,0.0007887640967965,-0.4723513722419739,0.0704343020915997,9.772438049316406
1.998720407485962,0.0001446370733901,-0.0013777187559753,-0.0006095236167311,-0.4881714284420013,0.0924421399831783,9.770071029663086
2.0028107166290283,0.0009944544872269,0.0003292293986305,-0.0020900615490972,-0.4895872473716736,0.08278387784958,9.782395362854004
2.006713628768921,-0.0004961005179211,-0.0010357934515923,-0.0016697919927537,-0.4911829829216003,0.0794461295008671,9.784709930419922
2.010711669921875,-0.0001848534448072,-0.0020258780568838,-0.0004072575829923,-0.479038804769516,0.07929676026106,9.80889892578125
2.014709711074829,0.0002472442574799,-0.00191236496903,-0.0002918937243521,-0.4882227182388305,0.0754254236817372,9.825554847717283
2.0187246799468994,-7.734587416052818e-05,-0.0005438008229248,2.36541964113713e-05,-0.4992051720619201,0.0773636326193821,9.826456069946287
2.0228545665740967,-0.0002831197343766,0.0005375384353101,4.231417551636689e-05,-0.4834389686584472,0.0681809633970272,9.840222358703612
2.030719518661499,-0.0013506166869774,-0.0005333175067789,-0.0004973984323441,-0.4891199469566345,0.0778475999832165,9.81366729736328
2.0347046852111816,-0.0014596363762393,-0.0009615528979338,0.0015166765078902,-0.4833958745002746,0.0688254833221447,9.803184509277344
2.0387156009674072,-0.000695975148119,9.97724710032344e-05,3.965385258197783e-05,-0.4863118529319763,0.0850970298051846,9.794270515441896
2.0427157878875732,-0.0011320878984406,-0.0005194313707761,-0.0020977021194994,-0.4781023859977722,0.0827889144420635,9.784241676330566
2.050715684890747,0.0006730402237735,-0.0004020952037535,-0.0002708127722144,-0.4881289601325989,0.0777940005064022,9.842537879943848
2.0547187328338623,0.0015263742534443,-0.0029806492384523,0.0005578123964369,-0.4858558475971222,0.0643632411956799,9.840694427490234
2.058715581893921,0.0006743886624462,-0.0013765229377895,-0.001350674778223,-0.4891958236694336,0.0529431253671658,9.82493495941162
2.0667049884796143,-0.0007175829960033,-0.0001021049101836,-0.0025202571414411,-0.492529958486557,0.0676909312605869,9.824159622192385
2.070704698562622,-0.000172910047695,0.0009565638029016,0.0001427861861884,-0.4900671243667602,0.0775619223713886,9.778524398803713
2.074704647064209,-0.003265346866101,-0.000630511844065,2.932036295533188e-05,-0.4900122880935669,0.0747561529278767,9.763276100158691
2.0787158012390137,-0.0015722705284133,-0.0008638709550723,0.0025883223861455,-0.4938665330410003,0.0809688344597828,9.763269424438477
2.082742691040039,0.0018421577988192,-0.0003151891287416,-0.0007092715241014,-0.5053582191467285,0.0713807716965687,9.765613555908203
2.0907297134399414,0.0005678788293153,0.0004312897508498,-0.0007080510258674,-0.4900663793087005,0.079831399023534,9.808881759643556
2.0947105884552,0.0022687357850372,0.0013814305420964,0.0005830177105963,-0.487802505493164,0.0845385789871227,9.820866584777832
2.0988495349884033,0.0012030951911583,0.0028736803214997,0.0001565879210829,-0.4901092052459717,0.0769345611333859,9.808856010437012
2.102705240249634,-0.0003898099530488,-0.0007378129521384,-0.0015642563812434,-0.4876819252967834,0.0636572167277348,9.785516738891602
2.1067051887512207,0.0004644342698156,0.0008566630422137,4.377588629722585e-05,-0.4871565401554107,0.0651183500885975,9.776999473571776
2.110750198364258,-0.0018792185001075,0.0020320720504969,0.0006862482987344,-0.4976509809494018,0.0844048112630856,9.759923934936523
2.1147420406341553,-0.0008248263038694,0.0036950211506336,0.0020776917226612,-0.4823544919490814,0.0807290077209484,9.773879051208496
2.118849039077759,0.0009052913519553,-0.0006616134778596,0.0018470524810254,-0.4891371726989746,0.0722104012966168,9.79989242553711
2.1267130374908447,-0.0009223292581737,0.0002126318868249,-6.956653669476512e-05,-0.5020935535430908,0.0726222544908535,9.815494537353516
2.1347100734710693,0.0017341503407806,-0.0016027956735342,0.0017346949316561,-0.509727418422699,0.0707019716501248,9.814934730529783
2.138725996017456,0.0005766593385487,0.0006336197257041,0.000900262966752,-0.4977490305900574,0.0933232158422482,9.774823188781738
2.1467182636260986,0.0019500172929838,-0.0019084598170593,-0.0008181445300579,-0.4952787160873413,0.0723269730806362,9.767991065979004
2.150714159011841,0.0019580358639359,-0.0029896930791437,0.0001584412530064,-0.4843465387821197,0.0693080872297298,9.788352966308594
2.1587531566619873,-0.0003830648493021,-0.00074663257692,-0.000395277980715,-0.4791732132434845,0.0548581518232834,9.826176643371582
2.162705183029175,0.0002448895247653,-0.0006346047157421,0.0003571575507521,-0.4882019162178039,0.0621198974549782,9.819268226623535
2.170743227005005,0.001628523110412,-0.0009609299013391,0.0008866307325661,-0.5112006664276123,0.0801533013582241,9.838706016540527
2.1787431240081787,0.0003472787793725,0.0028754761442542,-0.0010217940434813,-0.5049054622650146,0.0943578183650982,9.77175998687744
2.1867051124572754,0.0024821073748171,-0.0006354788201861,-0.0006008148193359,-0.4881705045700073,0.0899082347750675,9.797441482543944
2.19077205657959,0.0004563174443319,0.0003218279452994,-0.0001727719791233,-0.5049257278442383,0.0894952267408382,9.78693675994873
2.194782257080078,-0.00039723678492,-0.0002373048337176,0.0006814706139266,-0.5129947662353516,0.0785712748765957,9.778791427612305
2.1987221240997314,-0.0011392933083698,0.000852815923281,0.0003587519749999,-0.5029837489128113,0.0818270370364201,9.787405014038086
2.202705144882202,-0.0001813701819628,0.0002109166816808,0.0005706213414669,-0.4896290898323059,0.0755431428551686,9.80445384979248
2.206705093383789,0.0018323108088225,-0.0004294993705116,0.0006747972220182,-0.4847289621829986,0.0721865445375454,9.788779258728027
2.2107222080230713,0.002059769583866,0.0004310253425501,-0.0012352275662124,-0.4963035881519317,0.0803313702344906,9.800211906433104
2.2147090435028076,0.0008800505893304,0.0004273667873349,0.0005684532225131,-0.4905064404010772,0.0756179988384258,9.775948524475098
2.2188711166381836,-0.0002879854291677,-5.561101716011589e-06,0.0014209230430424,-0.4881413280963897,0.0703706741333019,9.781633377075195
2.222705125808716,-0.001138164428994,-0.0009547012741677,-0.0006078816950321,-0.4881480038166046,0.0689204782247555,9.782569885253906
2.226713180541992,0.0012010693317279,-0.0004292482626624,0.0002499846741557,-0.4957884848117828,0.0765819102525723,9.7844877243042
2.230708122253418,0.0010962642263621,-0.0007487484253942,0.0008853892795741,-0.5073192119598389,0.0582980811595928,9.807662963867188
2.2347052097320557,-0.0002929712645709,0.0012827875325456,-0.0004872307181358,-0.5173461437225342,0.0552635863423359,9.818218231201172
2.2387402057647705,0.0004578771768137,-0.0002178150461986,0.0006748405285179,-0.5121301412582397,0.0726953446865093,9.795342445373535
2.2467141151428223,-0.0009163530776277,-0.001159108011052,-0.0024055277463048,-0.4967709183692932,0.0664779543876659,9.792536735534668
2.2507052421569824,-0.000286515802145,0.0003291745670139,-0.0015580598264932,-0.4924671649932861,0.0665105581283581,9.786304473876951
2.254721164703369,0.0003528067609295,-0.001284300815314,-0.0001772069372236,-0.4962975978851318,0.0717582777142536,9.783592224121094
2.258716106414795,0.0004571955651044,0.0008439423399977,0.0011004405096173,-0.4900190532207489,0.0862706527113926,9.74986743927002
2.26670503616333,0.0001371699618175,-0.0006429412169381,0.0009930622763931,-0.4929165840148926,0.0914256870746624,9.78120231628418
2.270705223083496,-0.0004988968139514,0.0009601729689165,-0.0009125601500272,-0.4896357655525207,0.0922290906310093,9.809657096862791
2.2787232398986816,3.056973218917847e-05,0.0018017849652096,0.0015360228717327,-0.499184250831604,0.0755411088466656,9.802474975585938
2.282721996307373,-0.0006043310277163,-0.000959325407166,0.0001416434533894,-0.5044416189193726,0.0850811600685131,9.809642791748049
2.290745258331299,-0.0006082265172153,-0.0005371773149818,0.0017423764802515,-0.5015401244163513,0.0751348137855541,9.790117263793944
2.2987160682678223,-0.0003910299856215,-0.0006346853915601,-0.0010296902619302,-0.4938567280769348,0.0780917108058941,9.766830444335938
2.3027050495147705,-0.00263037905097,-0.0006388131296262,0.000239698216319,-0.4934149980545044,0.0890124663710606,9.781609535217283
2.306704521179199,-0.0014602491864934,-0.001176891149953,0.001313779503107,-0.4919817447662353,0.0875694379210484,9.792993545532228
2.3107235431671143,-0.0009183393558487,-0.0013835523277521,-7.869722321629507e-05,-0.4948975741863251,0.0917485505342495,9.811993598937988
2.318720579147339,-0.0004962956300005,-0.0003233229508623,0.0007908521220088,-0.4939426183700561,0.0827430784702313,9.80055046081543
2.326709747314453,3.968575038015842e-05,0.0008494431967847,-0.0013380860909819,-0.4805471897125244,0.0793302506208431,9.809125900268556
2.330704689025879,0.0006684968830086,-0.0007482439978048,0.0007757423445582,-0.4862388968467712,0.0793841481208813,9.79767608642578
2.3347275257110596,0.0012006871402263,0.0006349609466269,0.0011076335795223,-0.4886433780193329,0.0832270830869686,9.794373512268066
2.3387537002563477,0.0021699634380638,0.0005292535061016,-0.0002807071432471,-0.4818912744522095,0.0832040905952465,9.79675006866455
2.342714548110962,0.0016227687010541,0.0007447538664564,-6.308499723672876e-05,-0.4767076671123504,0.0817399173975002,9.806758880615234
2.3467135429382324,0.0005659977905452,0.0024503683671355,-0.0011243489570915,-0.4695145487785339,0.0831736624240887,9.804884910583496
2.350722551345825,-0.0024185725487768,0.0008436779025942,0.0006752489134669,-0.4852668046951294,0.0875579714775097,9.791985511779783
2.35471773147583,0.0009956129360944,0.0002118063857778,-0.0004929625429213,-0.4948456287384033,0.0799217373132717,9.784823417663574
2.3627045154571533,0.0008809057180769,-0.0003258653450757,0.0015265503898262,-0.4933841228485107,0.0833278596401226,9.772022247314451
2.366708517074585,-0.0016675951192155,-0.0012795591028407,0.0008834502659738,-0.5000723004341125,0.0919711440801632,9.763469696044922
2.3707287311553955,-0.0005006800638511,-0.0017094543436542,0.001732125878334,-0.4934302866458893,0.0937655121088039,9.788187980651855
2.3747057914733887,-0.0008189943619072,-0.00234384695068,0.0003437190316617,-0.4872053265571594,0.1133894324302685,9.790176391601562
2.3787155151367188,-0.0010304057504981,0.0016003083437681,-0.0014446778222918,-0.4891158938407898,0.0875313729047787,9.79812717437744
2.382704734802246,-0.0015602151397615,-0.0004077965277247,-0.0023073789197951,-0.4863554835319519,0.0740141198039067,9.827048301696776
2.386704683303833,0.0003496365388855,-0.0007483908557333,0.0004620808176696,-0.4934936165809631,0.0743845030665409,9.845558166503906
2.390728712081909,0.0007803225307725,-0.0006338958628475,-0.0010266890749335,-0.497826874256134,0.0662245601415646,9.851216316223145
2.394704580307007,0.000990533735603,-0.0010659323306754,0.0001436080783605,-0.4948927760124206,0.0592163465917122,9.815057754516602
2.3987467288970947,-0.0004007061943411,-0.0005464528221637,0.0024817786179482,-0.5001276135444641,0.0697730109095585,9.807040214538574
2.406721591949463,-7.496029138565063e-05,-0.0002073478535749,-0.0016647924203425,-0.4861917197704315,0.0781286880373966,9.760493278503418
2.410709857940674,-0.001134350313805,-0.0011621941812336,-0.002097129356116,-0.4866926074028015,0.0852202698588383,9.77625846862793
2.4147047996520996,-0.0001910192659124,-0.0011754051083698,0.0008806334808468,-0.4900822043418884,0.093732535839082,9.805168151855469
2.418848991394043,0.0018395717488601,-0.0011773902224376,0.0014194906689226,-0.4824386835098266,0.0860506296157849,9.805694580078123
2.4227049350738525,0.002053284086287,0.0019084140658378,0.0002678972668945,-0.4858036637306213,0.0903238207101834,9.811861991882324
2.4268128871917725,3.0920724384486675e-05,0.0019133099121972,-5.885772407054925e-05,-0.4843600392341614,0.0888902544975292,9.812333106994627
2.4307048320770264,-0.0010361477034166,-0.0015860716812312,-0.0009411727078258,-0.4785728752613067,0.0784506350755703,9.784199714660645
2.4347047805786133,0.0021589640527963,-0.0002117514959536,-0.0002674967981874,-0.484282910823822,0.0765449553728115,9.79233741760254
2.438715934753418,0.0013130910228937,-0.0008513375069014,-0.0008160909637808,-0.4947949945926666,0.0771209299564373,9.76430892944336
2.4427649974823,0.002165091689676,-0.000102154968772,-6.865011528134345e-05,-0.4966700971126556,0.0819417089223873,9.750030517578123
2.450712203979492,-0.000604317872785,-0.0004235881497152,-0.0009215734899044,-0.4977424144744873,0.0764754861593258,9.80749225616455
2.4547269344329834,-0.0011433777399361,0.0024414947256445,0.0014339201152324,-0.5159462094306946,0.0817014276981365,9.81411361694336
2.4587159156799316,0.0017570389900356,-0.0005383304669521,-0.0006980076432228,-0.5011652708053589,0.0916578620672238,9.836960792541504
2.466704845428467,0.0025875242426991,-0.0021289752330631,-7.453886792063687e-05,-0.4996163249015808,0.0799077749252331,9.789427757263184
2.4747049808502197,-5.217175930738449e-05,-0.0013858231250196,3.214692696928995e-05,-0.5135278701782227,0.0727392435073864,9.781868934631348
2.482729911804199,-0.0006048777140676,-0.0002101944410242,-0.0004929895512759,-0.4929092824459076,0.0703988447785389,9.776081085205078
2.486726999282837,0.0002511985367164,0.0009463951573707,0.0006786142475903,-0.4919483065605163,0.0751517713069927,9.776610374450684
2.494710922241211,-0.0007113834144547,6.905989721417249e-06,-0.0014530075713992,-0.5010720491409302,0.0650200098752987,9.802604675292969
2.502704381942749,-0.0002850199816748,-0.0007371412357315,-0.0005989978089928,-0.4910564124584198,0.0760802924633038,9.796991348266602
2.5107154846191406,-0.0019868733361363,4.20800643041716e-06,-0.0011323862709105,-0.4828745424747467,0.0708142817020428,9.791298866271973
2.5187294483184814,0.002053412143141,9.997183224186316e-05,0.0011096163652837,-0.4790174663066864,0.0843146294355404,9.768013954162598
2.5228402614593506,0.0021590252872556,-0.0001118918298743,0.0010010139085352,-0.4867695271968841,0.0818043351173412,9.789902687072754
2.5307042598724365,0.0002450614701956,0.0018133288249373,-0.0006974721327424,-0.502557635307312,0.0754172801971447,9.831131935119627
2.53471040725708,-0.0007112706080079,0.0003251390298828,-0.0014489502646028,-0.5054271817207336,0.0873967260122311,9.824505805969238
2.5387532711029053,0.0012045216280966,-0.0003102101036347,-0.0017717501614242,-0.498689740896225,0.0893775522708904,9.815489768981934
2.5427184104919434,0.000252001103945,0.0032067149877548,-0.0028284580912441,-0.4915405809879303,0.0904611945152294,9.782669067382812
2.5507125854492188,0.0003521081525832,0.000640069018118,-0.0001660943962633,-0.4756941795349121,0.0818764120340359,9.77747917175293
2.5547165870666504,0.0022649182938039,0.0002063456922769,0.0015366221778094,-0.4785390198230743,0.08240905404091,9.767044067382812
2.558715343475342,-0.0007097827037796,-0.0007444529910571,-0.0002824324183166,-0.4709104001522064,0.0761443302035343,9.774559020996094
2.56270432472229,0.0007780046435073,-0.0013751026708632,-0.0010360684245824,-0.4814776480197906,0.078313283622266,9.819698333740234
2.566713333129883,-0.000291951932013,-0.0013969361316412,0.0025889286771416,-0.4953695833683014,0.0812225863337528,9.81929874420166
2.5787193775177,0.0015233390731737,-0.0028672644402831,-0.0013538682833313,-0.4775957763195038,0.0766307562589657,9.772196769714355
2.5827293395996094,0.0005645876517519,-0.0021255146712064,-0.0009268335998058,-0.4780515432357788,0.0680777430534374,9.75979709625244
2.5907094478607178,0.0005660386523231,-0.000103618542198,3.4259632229805006e-05,-0.4833235144615173,0.0838108807802212,9.774121284484863
2.5947043895721436,0.0013018090976402,-0.0008488580933772,0.000993596855551,-0.4919407367706299,0.0775577872991573,9.781651496887209
2.598715305328369,0.0007654108921997,-0.0016869562678039,0.0004439540207386,-0.5005346536636353,0.0759700685739529,9.807204246520996
2.60670804977417,-0.0010364971822127,-0.0007493081502616,0.0009921202436089,-0.4828891158103943,0.0827294439077389,9.796884536743164
2.610741138458252,0.000986203434877,-0.0011776856845244,0.0016338275745511,-0.4790775179862976,0.0975703448057186,9.79839038848877
2.614720106124878,0.0006640435894951,-0.002139288932085,0.0018356847576797,-0.4732753336429596,0.0956178307533276,9.795042991638184
2.618845224380493,0.0001355132553726,-0.0005346983671188,0.0015273420140147,-0.4718476831912994,0.0823719352483761,9.769742965698242
2.62272310256958,-7.588579319417477e-05,-0.0010650053154677,0.0003553442656993,-0.480386346578598,0.0868450105190289,9.731805801391602
2.626716136932373,0.0006637502810917,-0.0004344975459389,-0.0008185724727809,-0.4833417534828186,0.0820891708135616,9.742999076843262
2.630704164505005,0.0002462210832163,0.0009651510627008,-0.0005927234888076,-0.4742436408996582,0.0823290795087826,9.78068733215332
2.634838104248047,0.0001373136183246,-0.0005325757665559,-0.0009224847890436,-0.4948155581951141,0.0823284238576901,9.788272857666016
2.63877010345459,-0.0012496896088123,-0.0003194177988916,0.0001415517181158,-0.511170506477356,0.0793188810348522,9.818679809570312
2.6427130699157715,0.0009851686190813,0.0003088255180045,0.0025981878861784,-0.5121374130249023,0.0768585354089749,9.833365440368652
2.6507182121276855,0.0001356062712147,-0.0009679513168521,0.0020557516254484,-0.5025261044502258,0.0922825783491146,9.80730438232422
2.654733180999756,-0.0008174001704901,-0.0006491624517366,0.0013174028135836,-0.4915225505828857,0.0832369625568401,9.793027877807615
2.6588480472564697,3.151537384837866e-05,0.0004292113299015,-0.0002781231887638,-0.4967759251594543,0.084624081850053,9.801560401916504
2.666707992553711,0.0004558219807222,-0.0008523765136487,0.0003556828014552,-0.4800472259521484,0.0965443402528774,9.81112289428711
2.6707160472869873,0.0019468222744762,-0.0031983121298253,0.0013048681430518,-0.4929535090923309,0.1119090095162403,9.797341346740724
2.6787290573120117,-7.371138781309128e-05,-0.0001041849609464,-0.0005999775603413,-0.4968503713607788,0.0878221318125736,9.837650299072266
2.682704210281372,-0.000598975457251,0.000419495627284,0.0004561417736113,-0.4877589344978332,0.0912773832678807,9.829107284545898
2.6907150745391846,0.0008854388725012,-6.009882781654277e-06,0.0026045180857181,-0.4910801649093628,0.0826895013451588,9.80013656616211
2.6947100162506104,-0.0009260033257305,-0.000838829902932,-0.0003807619214057,-0.4829144179821014,0.0703714713454258,9.781170845031738
2.698723077774048,-7.584900595247746e-05,-0.0007476099999621,0.0005661458708345,-0.4900329411029815,0.0766450688242924,9.77059555053711
2.7067148685455322,0.0001351184910163,-0.0004304823814891,0.001530269626528,-0.4972202181816101,0.0780269876122486,9.781977653503418
2.7147109508514404,-0.0007150262827053,0.0001018355251289,0.0011036470532417,-0.4843452870845794,0.0593064203858387,9.797110557556152
2.718843936920166,4.076480399817228e-05,-0.0008624492911621,0.0014193570241332,-0.4651855826377868,0.0735724642872822,9.808210372924805
2.7228548526763916,-0.000819825916551,-0.000102297286503,-0.0007050521671772,-0.4757364690303802,0.0798305794596684,9.808110237121582
2.7267158031463623,-0.0002893166383728,0.0007494543096981,-0.0004890672862529,-0.4900580942630768,0.0813650712370884,9.7857666015625
2.734708786010742,0.0012007910991087,0.0010635290527716,0.0002578343264758,-0.48194020986557,0.0760329291224491,9.80001735687256
2.738715887069702,-0.0002948485780507,-0.0009397321846336,-0.0004910039715468,-0.4909689426422119,0.0847653076052677,9.78020477294922
2.7467148303985596,0.0002425471320748,-0.0001112805912271,0.0013197949156165,-0.4876838326454162,0.0989548787474644,9.802948951721191
2.750713586807251,-0.0020966976881027,0.0002096139360219,0.0008915411308407,-0.5020304918289185,0.0894280672073376,9.805723190307615
2.754715919494629,-0.0017802993534132,-2.569577191025053e-06,-0.0002845018170773,-0.4996566772460937,0.0889262259006512,9.80001735687256
2.762704849243164,0.0008794305613264,-0.0004268387565389,0.0012079295702278,-0.4915298521518707,0.0673906430602085,9.809431076049805
2.770704984664917,-0.0003932740073651,0.0022387620992958,-0.0006972947157919,-0.4704554677009582,0.0736241713166249,9.803788185119627
2.7787342071533203,0.0002457820810377,0.000856808735989,-0.0005944613367319,-0.4824248552322387,0.0927730351686489,9.800061225891112
2.7827179431915283,0.0011994845699518,0.0020247427746653,-0.000377329532057,-0.4771373867988586,0.0880183503031742,9.79240608215332
2.7867062091827393,0.0011977043468505,0.0013838994782418,0.0005750223062932,-0.4838311672210693,0.0765639021992695,9.792348861694336
2.7907049655914307,0.0007763061439618,-0.0002104166778735,-0.0009223734959959,-0.4977288842201233,0.0775120928883564,9.791833877563477
2.794736862182617,-0.0002862297696992,0.0011569433845579,0.0021989713422954,-0.4896390438079834,0.0759926661849034,9.811269760131836
2.8027048110961914,-0.0006103494670242,-0.0016989253927022,-0.0003936714492738,-0.4852806627750397,0.0793837755918514,9.798535346984863
2.806713581085205,-7.54321226850152e-05,0.0002067805035039,0.0006751623004674,-0.4838059544563293,0.0842009186744701,9.788573265075684
2.8107168674468994,0.0010873859282582,0.0025582956150174,0.0003798441030085,-0.483905553817749,0.0847025066614163,9.787631034851074
2.8147048950195312,0.0004638276295736,-0.0015798297245055,-0.0033718445338308,-0.4723623991012573,0.0899399667978298,9.789093017578123
2.8188488483428955,0.0009881483856588,-0.0005311078275553,-6.869714707136147e-05,-0.4929466843605041,0.0769752264022839,9.802294731140137
2.822704792022705,0.0015216936590149,0.0012815871741622,-0.0012317840009927,-0.484936773777008,0.0658427625894558,9.8146390914917
2.826704978942871,0.0019467655802145,0.0017041261307895,0.0020800521597266,-0.4819610118865967,0.0768199637532246,9.82822036743164
2.830709934234619,0.0010924916714429,0.0002085394226014,0.0013188007287681,-0.4839400947093963,0.0734159126877796,9.851198196411133
2.834704875946045,-0.0001846499508246,0.0010636376682668,0.0003611575812101,-0.4724113047122955,0.0840645208954823,9.821834564208984
2.8387320041656494,-0.0013524262467399,-0.0004158472293056,-0.001247881911695,-0.4747157096862793,0.0894469767808926,9.793326377868652
2.8427698612213135,-0.000611301860772,0.0003124545328319,0.0019552013836801,-0.4872359931468963,0.0860005021095288,9.817516326904297
2.846712827682495,0.001627615885809,-0.000428277417086,0.0007831072434782,-0.49578857421875,0.0885539948940289,9.7842378616333
2.850713014602661,-0.0010394069831818,-0.0008482856210321,-0.0002855309285223,-0.499121606349945,0.0851659923791897,9.776171684265137
2.854726791381836,0.0020503962878137,-0.0006395798409357,-0.000603218562901,-0.4915142655372619,0.0917789638042462,9.805601119995115
2.858733892440796,0.0012036904226988,0.0020121119450777,0.002501112408936,-0.498694509267807,0.0969722270965588,9.822320938110352
2.8667049407958984,-0.0018883751472458,0.00020935642533,0.0012064995244145,-0.495366632938385,0.0702007189393055,9.820246696472168
2.8747096061706543,-0.0008226454956457,-0.0001094444305635,0.0007791928946971,-0.4814321994781494,0.0808685123920452,9.786563873291016
2.8787248134613037,0.000349108246155,0.0008541421266272,-0.0003870329819619,-0.4895205199718475,0.0780947953462612,9.766119956970217
2.8867099285125732,0.0006677175988443,-0.001065154094249,0.0008902209810912,-0.4790292680263519,0.0843363851308834,9.75853157043457
2.890704870223999,0.0014080788241699,0.0011559885460883,0.0016433019191026,-0.4833247065544128,0.0928178280591976,9.782301902770996
2.894723892211914,0.0018367416923865,0.0015897336415946,0.0019650622271001,-0.4867464303970337,0.0998889431357395,9.811790466308594
2.898813009262085,-0.0010391818359494,-0.0002154998364858,0.0007794718258082,-0.486257940530777,0.0826971754431736,9.8036527633667
2.902705192565918,-0.0001762975007295,-0.0015851872740313,-0.0028444502968341,-0.4901054501533508,0.0759538337588322,9.819774627685549
2.906705141067505,0.0012059740256518,-0.0001965456176549,-0.0034729733597487,-0.4919354915618896,0.0758821591734898,9.816515922546388
2.9107131958007812,0.0007824854110367,-0.0008372051524929,-0.0032647249754518,-0.501569390296936,0.0836555659770977,9.809823036193848
2.9147050380706787,-7.562281098216772e-05,-8.975953096523919e-05,-0.0030463328585028,-0.4962537586688995,0.0704650133848202,9.774646759033203
2.9188692569732666,0.0001359550515189,-0.0009531973628327,-0.0007091220468282,-0.4857116043567657,0.0704292356967938,9.77080535888672
2.9227712154388428,-0.0001827910309657,0.0015960821183398,0.0004661763086915,-0.482388973236084,0.0876166224479687,9.780879020690918
2.930706262588501,0.0002400686498731,0.0001033173175528,0.0012086755596101,-0.4695459604263305,0.0892804786562931,9.831239700317385
2.9347100257873535,0.0008949597249738,9.686389239504952e-05,0.0015246672555804,-0.4905417561531067,0.0932048782706272,9.824130058288574
2.9387199878692627,-0.0025393613614141,0.000212908082176,0.0016310052014887,-0.4949270486831665,0.0831561759114277,9.811678886413574
2.942714214324951,-0.0009313256014138,-0.0019149302970618,2.996623516082787e-05,-0.4876779615879059,0.0941820070147526,9.803213119506836
2.9467082023620605,-0.0004992310423403,-0.0006356738158501,-0.0008209077641367,-0.4862519204616546,0.0937408432364475,9.79322910308838
2.950716257095337,-0.0016820665914565,0.0009547468507662,0.0009936946444213,-0.4980940818786621,0.0857374817132961,9.779383659362791
2.958721160888672,-0.0026308095548301,0.0001089717843569,-0.0002845753915607,-0.5005974173545837,0.0870296582579624,9.800736427307127
2.9627132415771484,-0.0007356496062129,-0.0001108968863263,0.0013133347965776,-0.5154579281806946,0.0852201059460651,9.784494400024414
2.970705032348633,0.0009864043677225,-0.0008521167328581,-6.991904228925694e-05,-0.4991887509822845,0.0807081609964382,9.824932098388672
2.9787240028381348,-0.0003985544899478,0.0021250115241855,0.001005464233458,-0.4981947243213653,0.0894371569156658,9.79647159576416
2.9867050647735596,2.738100010901689e-05,0.0005287315580062,0.0009981435723602,-0.4862160384654999,0.0689355432987225,9.78260326385498
2.9947052001953125,0.0025777933187782,-0.0020225998014211,0.000670067500323,-0.4976803660392761,0.0886172801256191,9.781949043273926
2.998784065246582,0.0010936729377135,8.482544217258553e-06,-0.001129756681621,-0.4919736683368683,0.0947213619947445,9.795997619628906
3.0027520656585693,0.0010941424407064,-0.0024504379834979,0.0003566802479326,-0.4910164773464203,0.0788537859916699,9.802595138549805
3.0067059993743896,0.0005581221776083,-0.0007510178838856,0.0006734305061399,-0.5049459934234619,0.0751076042652142,9.799677848815918
3.0107150077819824,0.0015212026191875,-0.0007319023716263,-0.0028346199542284,-0.4905605018138885,0.0798275321722042,9.807821273803713
3.014724016189575,-0.0003920699236914,0.0008640507585369,-0.0026193261146545,-0.4953275918960571,0.0789135470986378,9.797327995300291
3.018852949142456,-0.0022113318555057,0.0002063459833152,0.0005592848174273,-0.4958033561706543,0.076076738536359,9.80449104309082
3.022732973098755,-0.0024234990123659,0.0007350742816925,0.002376758493483,-0.4943821430206299,0.0664364099502575,9.806764602661133
3.0267179012298584,-0.001353007974103,-0.0007387893274426,-0.0014585386961698,-0.4708834886550903,0.0718416273593914,9.77596664428711
3.0307109355926514,0.0007756600389257,-0.0006339295650832,-0.0010300478897988,-0.4770852327346802,0.0718711316585552,9.76878833770752
3.034705877304077,0.0002419522497802,-0.0001143365516327,0.0001387274824082,-0.4910086095333099,0.0713464468717587,9.77489948272705
3.038717031478882,-8.072401396930218e-05,-0.0010683155851438,0.0007770536467432,-0.4775853753089905,0.0780653581023228,9.771207809448242
3.042714834213257,-0.0010367800714448,-0.0022396361455321,0.001942980568856,-0.4857639074325561,0.0898993983864796,9.79975414276123
3.0467169284820557,-0.0005059046670794,-0.0023590417113155,0.0022625434212386,-0.4862756133079529,0.0864671394228947,9.827232360839844
3.0508499145507812,0.0003482842585071,0.000640346086584,-6.565451622009285e-05,-0.4901182055473327,0.0682584270834934,9.82624340057373
3.0547149181365967,-0.0008220882155001,-0.0005279956967569,0.0003537680022418,-0.4958153665065765,0.0774495452642452,9.802600860595703
3.0587170124053955,0.0001372763654217,-0.00031226122519,-0.0017705897334963,-0.4800091981887817,0.0775459408760082,9.783531188964844
3.0667059421539307,0.0011984503362327,-0.00010492419824,-0.000173267442733,-0.4909523129463196,0.0853599905967724,9.746952056884766
3.0707058906555176,0.0023775971494615,-8.745183004066398e-05,-0.0041071544401347,-0.4819263517856598,0.0808660238981258,9.790189743041992
3.0787320137023926,-0.0007122746901586,-0.0006325090071186,-0.000927077140659,-0.5096816420555115,0.072197124361993,9.800539016723633
3.0827269554138184,0.0017296643927693,0.0009592199930921,0.0004758313298225,-0.4958348870277405,0.0687601715326321,9.822919845581056
3.0867059230804443,0.000346599961631,0.0010631788754835,0.0002546985633671,-0.4939292371273041,0.0807291120290768,9.821024894714355
3.0907058715820312,-0.0014366668183356,3.745895810425205e-06,-0.0006247935816645,-0.503432035446167,0.1004620492458355,9.79418659210205
3.094709873199463,-0.0023203520104289,0.0007403134950436,0.0002556787803769,-0.4900723695755005,0.0865836516022694,9.794448852539062
3.0987741947174072,-0.0013555041514337,0.0012796766823157,-0.0008123582229018,-0.4814378023147583,0.0914783850312244,9.76976203918457
3.10270619392395,0.000134038273245,-0.0019191140308976,0.001201735343784,-0.4727967381477356,0.0885766893625271,9.780709266662598
3.106705904006958,0.0014100228436291,0.0002076348173432,0.0010009706020355,-0.481864869594574,0.0833350121974957,9.771625518798828
3.110745906829834,1.9023078493773937e-05,0.0006319963140413,0.0024909051135182,-0.5067931413650513,0.0718138813972485,9.776296615600586
3.114705801010132,-0.0011417563073337,-0.0002205020864494,0.0008846716955304,-0.5072643160820007,0.0689580738544476,9.777673721313477
3.1188488006591797,-0.0002928290050476,-0.0004321702290326,0.0014216783456504,-0.4976947903633117,0.0751612037420284,9.78154182434082
3.126720905303955,2.467771992087364e-05,0.0003208682755939,0.0006799101829528,-0.5020382404327393,0.0769114047288906,9.824286460876465
3.1307098865509033,-0.0001973139587789,-0.0001988387666642,-0.0002681529149413,-0.4890840947628021,0.086485266685487,9.82371711730957
3.1347248554229736,-0.0005024209385737,-0.0019190155435353,0.0005593691021203,-0.4972705841064453,0.08361615240574,9.81672477722168
3.138725996017456,0.0008794033783487,-0.001712056575343,0.0015223724767565,-0.5029569864273071,0.0885244458913815,9.78775119781494
3.1467180252075195,-0.0009312159381806,-0.0009517701109871,3.310432657599461e-05,-0.5000634789466858,0.0956544429063809,9.79018783569336
3.15071702003479,-0.0011417301138862,-0.0015945362392812,-0.0006089429371058,-0.483803927898407,0.0746656805276882,9.781987190246582
3.154714822769165,-0.0014709156239405,-0.0017147765029221,0.0010921582579612,-0.4904098510742187,0.0689836740493786,9.772017478942873
3.162705898284912,-0.0015631396090611,0.0018236776813864,-0.0033608132507652,-0.494385153055191,0.0980066955089581,9.806306838989258
3.16670560836792,-0.0009323735721409,-0.0002167639322578,0.0003510150127112,-0.4953404664993286,0.0865505337715161,9.805777549743652
3.1707658767700195,-0.0026323667261749,-0.0003184264060109,-7.317587733268734e-05,-0.4886024594306946,0.0732389390468609,9.782437324523926
3.174705982208252,-0.0014601957518607,-0.0008493253262713,-0.0001797592267394,-0.4852616488933563,0.0837360620498669,9.789149284362791
3.1787168979644775,-0.0003967464435845,2.0406441763042667e-06,-0.0006007277406752,-0.4962369501590729,0.0862081348896038,9.771080017089844
3.182717800140381,0.0001252281945198,-0.0005197273567318,0.0009926068596541,-0.4986684322357178,0.0748175531625759,9.774762153625488
3.1867055892944336,0.0006624690140597,0.0003154283040203,0.002282097004354,-0.4939174652099609,0.0704149305820477,9.79410171508789
3.190716028213501,-0.0012466745683923,-0.0005298173055052,-0.0007091807201504,-0.4934189617633819,0.074616737663747,9.796666145324709
3.1947062015533447,-0.0025259926915168,0.0003227547858841,-0.0004967115819454,-0.4819386005401611,0.0851523503661167,9.793364524841309
3.1987218856811523,0.0005565244937315,0.0004232097999192,-6.983708590269094e-05,-0.472882866859436,0.0892811268568051,9.82575225830078
3.2027101516723633,2.875877544283867e-05,0.0014943637652322,-0.0009135631844401,-0.4834125339984894,0.0821366906166088,9.824262619018556
3.206709146499634,-0.0021022227592766,0.0003217997727915,0.0006719981320202,-0.4910422563552856,0.0860399007797253,9.810539245605469
3.2107481956481934,-0.0010360106825828,-0.0009582953061908,0.0008795792236924,-0.4852409362792969,0.0914415270090115,9.783459663391112
3.218717098236084,0.0015188107499852,-0.0001038971822708,-0.0007047406397759,-0.5052818655967712,0.0748559087514889,9.741511344909668
3.222837209701538,0.0006642268854193,0.0007443966460414,0.0001487233676016,-0.5115569829940796,0.1034828945994389,9.762056350708008
3.226863145828247,0.0015159329632297,0.0002081622369587,0.0012097470462322,-0.4886286556720733,0.0865735188126576,9.794315338134766
3.23071026802063,-0.0014588066842406,-0.0003187375841662,-7.151952013373371e-05,-0.4938822090625763,0.0836902111768734,9.79762077331543
3.234706163406372,0.0018351330654695,-0.0021321359090507,0.0005645584315061,-0.5015377998352051,0.0865860879421246,9.795230865478516
3.238722085952759,0.0015210491837933,-0.0019094503950327,-0.0012441845610737,-0.4891084432601928,0.0875238403677952,9.798112869262695
3.246723175048828,0.0024746290873736,0.0005268859677016,0.0008984734304249,-0.5038914084434509,0.090505711734296,9.773860931396484
3.250789165496826,0.0016232713824138,0.0014884133124724,-6.200652569532412e-05,-0.5115053653717041,0.0786062702536594,9.752878189086914
3.2547242641448975,-0.000718880444765,0.0022366733755916,-0.0006966590881347,-0.4962272644042969,0.0646972432732594,9.76474952697754
3.258718252182007,0.0002553142840042,0.0015893495874479,-6.640097126364727e-05,-0.4981316030025482,0.0637469291687023,9.773115158081056
3.2667059898376465,0.0017347463872283,0.0011639676522463,0.0010002376511692,-0.4982615411281585,0.0596935153007519,9.825096130371094
3.270714282989502,-0.0009382123826071,0.0006572307902388,0.000571867916733,-0.4848951995372772,0.046246398240329,9.81500244140625
3.278736114501953,0.0004526078701019,0.0019079763442277,0.0016400776803493,-0.4890536069869995,0.0800124481320393,9.764781951904297
3.282715082168579,-0.0013546228874474,0.0012852519284933,-0.0017684577032923,-0.4823444783687591,0.0785535350441944,9.769079208374023
3.2867062091827393,-0.0014645187184214,-0.0003159294137731,-0.0008223690092563,-0.4919096231460571,0.0924360007047665,9.765304565429688
3.290706157684326,-0.0020985994488,-0.0019172371830791,0.000561524182558,-0.4919614493846893,0.0856887102127087,9.782830238342283
3.294710159301758,2.277991734445095e-05,-0.0017119189724326,0.0016263425350189,-0.4819461703300476,0.0875208526849758,9.79853057861328
3.298861265182495,-0.00050904834643,-0.0002310105483047,0.0028153965249657,-0.4867846071720123,0.078791841864587,9.824543952941896
3.302706003189087,-0.0003977877786383,0.0012735984055325,0.0006819600239396,-0.4925112128257751,0.0687214732170117,9.82835578918457
3.306706190109253,0.0002400312805548,0.0022307005710899,0.0004749381914734,-0.4901340007781982,0.0686675310134899,9.84118366241455
3.310710906982422,0.0005609554937109,0.002766509540379,-5.551194772124324e-05,-0.4977561831474304,0.0644576400518429,9.819311141967772
3.314706802368164,-0.0010363679612055,0.0020222207531332,-0.0002699475735425,-0.4866827726364136,0.0789984613657009,9.778101921081545
3.3187170028686523,0.0006647100672125,3.5169068723916533e-06,-0.0003877906128764,-0.499586284160614,0.086245395243169,9.761462211608888
3.3228938579559326,0.0009838113328441,0.0010585302952677,0.0012135417200624,-0.4852214455604553,0.086767189204694,9.753899574279783
3.3267149925231934,0.0009915025439113,-0.0009646236430853,-0.0006022495217621,-0.496751070022583,0.0894644707441341,9.791391372680664
3.3307089805603027,-0.0017787957331165,0.0001085526309907,-0.0004955260083079,-0.4938936233520508,0.0903804898262035,9.799921035766602
3.338716983795166,0.000458862981759,0.0005300065968185,0.0023831883445382,-0.4833652675151825,0.1036949157714855,9.823373794555664
3.3427159786224365,0.000242500915192,-0.0006365677108988,-0.0001767463982105,-0.4838312268257141,0.0813398808240902,9.796549797058104
3.3507208824157715,0.0016271385829895,0.0004239410045556,0.0003616572357714,-0.4785783290863037,0.0861283987760555,9.790450096130373
3.3547139167785645,0.0002378004137426,0.0031845008488744,0.0016498430632054,-0.4684873223304748,0.0953071266412746,9.768624305725098
3.362705945968628,0.0001321088057011,-0.0008519064285792,0.0001408364623785,-0.4871994256973266,0.0827143490314495,9.805113792419434
3.3707079887390137,0.0005570265930145,-0.0008580300491303,0.0012054261751472,-0.487682580947876,0.0731622576713574,9.801748275756836
3.3747096061706543,-0.0009347288869321,0.001368899946101,0.0033426946029067,-0.4934304356575012,0.074108123779298,9.802206993103027
3.3787169456481934,-0.0007217477541416,0.0005134275415912,0.0027063144370913,-0.4934508800506592,0.0874523669481289,9.811657905578612
3.3867368698120117,0.0008784654201008,-0.0004348904476501,0.0010021100752055,-0.4829028844833374,0.0898343920707714,9.819347381591797
3.3907055854797363,-0.0019814108964055,0.001134218648076,0.0034470655955374,-0.4794965088367462,0.0900193601846706,9.792855262756348
3.398725986480713,-0.0021016122773289,0.0001020021154545,0.000888658221811,-0.4905557334423065,0.0855782777071011,9.806036949157717
3.4027059078216553,-0.0008300335612148,0.0013677154202014,0.0031314073130488,-0.4881234765052795,0.0962060987949383,9.783740997314451
3.406705856323242,0.0009863449959084,3.530876711010925e-06,-6.486242637038231e-05,-0.4933963418006897,0.0889195948839199,9.802703857421877
3.414726972579956,-0.0003959437599405,0.0006462413584813,-0.0020860580261796,-0.496313214302063,0.0917360335588467,9.819344520568848
3.4187169075012207,-0.0009284656262025,0.0001147718867287,-0.0019867937080562,-0.4977530539035797,0.0955960005521786,9.80981159210205
3.422855854034424,0.0001372259575873,0.0011790373828262,-0.0017642404418438,-0.5063261389732361,0.0827382877469074,9.795549392700195
3.426736831665039,0.0002443966222926,0.0004300223663449,-0.0009161974303424,-0.511619508266449,0.0889213457703602,9.80552577972412
3.43471097946167,0.0013040368212386,-0.0013887227978557,-0.0002857241779565,-0.4886127412319183,0.0856674984097492,9.786517143249512
3.4387288093566895,0.0023627518676221,-0.0008403694373555,-0.0023120390251278,-0.5101286172866821,0.0951294898986828,9.805070877075195
3.442718982696533,0.0011981870047748,0.0004224824369885,0.0001506204716861,-0.5053753852844238,0.0956437289714825,9.802700996398926
3.4467155933380127,0.0006657571648247,0.0002128233900293,-6.938911974430087e-05,-0.5096760988235474,0.0813086703419697,9.797900199890137
3.450784206390381,0.0011993639636784,0.0019192973850294,-0.0009091566316783,-0.5006071925163269,0.0979756936430943,9.813176155090332
3.4547178745269775,0.0002427116269245,0.0005340945208445,-0.0013428665697574,-0.4934298992156982,0.0984754860401165,9.812201499938965
3.4627158641815186,0.0007731780060566,0.0002154754474759,-0.0007030735723674,-0.4986588060855865,0.0722462981939327,9.791669845581056
3.466707944869995,-0.0007125450065359,0.0008591447840444,-0.0008056475780904,-0.4809680879116058,0.0880810469388973,9.784161567687988
3.47072696685791,0.0008817136404104,0.0020307956729084,-0.0027173552662134,-0.4823946952819824,0.0932902842760098,9.793222427368164
3.4787349700927734,0.0010903009679168,-0.0006490873056463,0.0025906418450176,-0.4919988512992859,0.0568613968789589,9.809194564819336
3.4827229976654053,0.000555996550247,0.0008449380402453,0.0015337849035859,-0.4987050294876098,0.0654697865247738,9.81205940246582
3.486706018447876,0.0004526980919763,0.0007407965604215,0.0007896902970969,-0.5073044300079346,0.0840660929679882,9.81543254852295
3.490712881088257,-0.0014656959101557,-0.0001140424865297,0.001206403132528,-0.4891748428344726,0.0941302329301846,9.822636604309082
3.4947519302368164,-0.0008319888729602,0.0007475924212485,0.0007998812943696,-0.4899998903274536,0.0888850241899502,9.819854736328123
3.4988529682159424,-0.0006076726131141,0.0002200653543695,-0.0011333781294524,-0.5096738338470459,0.0914158076047909,9.782678604125977
3.5027101039886475,-0.0004997148644179,0.0004267113108653,-0.0006006704643368,-0.5110751986503601,0.0923434793949139,9.785523414611816
3.5067059993743896,-0.0022062414791435,-0.0003218158381059,0.000350706744939,-0.4996204078197479,0.0890012234449398,9.79079532623291
3.510721206665039,-0.0014642415335401,-0.0010672211647033,0.0005627945065498,-0.4862085580825805,0.0842415094375622,9.78504467010498
3.5147461891174316,0.0001376871950924,0.0003241652157157,-0.0008133673109114,-0.4786312580108642,0.0840975046157849,9.821722984313965
3.5267112255096436,-0.0013496709289029,-0.0011533813085407,-0.0037980512715876,-0.4852945208549499,0.0812563002109539,9.80925750732422
3.5307061672210693,-0.0005095849046483,2.340710489079328e-05,-0.0023104306310415,-0.4709265828132629,0.0821541100740444,9.806304931640623
3.534710168838501,-0.0008219118462875,-0.0006366884335875,-0.0007109022699296,-0.4815026819705963,0.0816347450017941,9.830163955688477
3.538729190826416,0.000554975005798,-0.0008572951192036,0.0013152537867426,-0.4871584177017212,0.0645575970411312,9.797355651855469
3.5427451133728027,-0.0009312750771641,0.0006394937518052,-0.0001676548272371,-0.4838027656078338,0.0685084760189068,9.775956153869627
3.550713062286377,0.0011971893254667,0.0005302677163854,0.0016343155875802,-0.4943038821220398,0.0781145989894878,9.763601303100586
3.5547170639038086,0.0017293265555053,-0.0009553802665323,0.0007878351025283,-0.5057862401008606,0.0818157196044933,9.789664268493652
3.5627059936523438,0.0015176192391663,-0.0029791102278977,-0.0001846849918365,-0.4876931309700012,0.0793285295367253,9.81208610534668
3.5707061290740967,-0.0015684742247685,-0.0020181634463369,-0.0003946255892515,-0.4814717769622803,0.0803479924798023,9.800246238708496
3.5747060775756836,0.0011832865420728,-0.0011685752542689,-0.0016675845254212,-0.4775767028331756,0.076593726873399,9.786446571350098
3.586710214614868,-0.0005015407223254,0.0024570622481405,-0.0020797783508896,-0.4953310489654541,0.0755459964275372,9.80254364013672
3.5907061100006104,0.0001352508552372,0.000529779586941,0.0011038826778531,-0.5101659893989563,0.0808174535632145,9.797789573669434
3.594740152359009,-0.0023079293314367,0.0009610448032617,-0.0012453305535018,-0.5025178790092468,0.0798406824469578,9.81102466583252
3.598738193511963,-0.0017818474443629,-0.0006426403997465,0.0008849771693348,-0.4905893802642822,0.0744659751653683,9.83199405670166
3.60270619392395,-0.0011458980152383,0.0012597633758559,0.0006763120181858,-0.4867814779281616,0.0706642121076596,9.820225715637209
3.606703758239746,0.000120896147564,0.0025667510926723,-0.0011354694142937,-0.4782657325267792,0.0773563981056225,9.818145751953123
3.61073899269104,0.0018326235003769,0.0017956737428903,0.0026012947782874,-0.4723842442035675,0.087990239262582,9.80164623260498
3.6187148094177246,0.0005610428052023,0.0008556835819035,-0.0009143287315964,-0.4837687015533447,0.064295992255212,9.75071907043457
3.6228342056274414,0.0005607942584902,0.0013878524769097,-0.0013443422503769,-0.4847079515457153,0.0652950257062923,9.744975090026855
3.626704216003418,0.0014019339578226,0.0011816227342933,0.0001481147482991,-0.4852210283279419,0.0614307373762142,9.750179290771484
3.630713939666748,0.0018402950372546,0.0006288384320214,0.0010000425390899,-0.4766275882720947,0.0594518184661877,9.763956069946287
3.634718894958496,0.0001438315957784,-0.0002101133577525,0.0006986195221543,-0.4914888739585876,0.0751342326402676,9.792967796325684
3.6387248039245605,0.0003502422478049,-0.0009555049473419,-0.0007092882879078,-0.4876596927642822,0.0827570706605923,9.796839714050291
3.6427128314971924,0.0005496703088283,0.0015969023806974,-0.0005920701660215,-0.4843911528587341,0.0813258886337292,9.801053047180176
3.6507070064544678,0.0008791033178567,0.0005326953832991,0.0005743713118135,-0.4833319783210754,0.0842639356851589,9.779754638671877
3.6547508239746094,0.0001336110290139,-0.0003150631091557,-0.000280613079667,-0.4919384121894836,0.0904730781912815,9.775961875915527
3.658715009689331,0.002674994058907,0.0002191757084801,-6.080372259020808e-05,-0.4876588881015777,0.0689782276749622,9.777732849121094
3.666703939437866,0.0008751282584853,-0.0005377562483772,0.0016342084854841,-0.4809210300445556,0.0929541587829601,9.761258125305176
3.674708843231201,-0.0002929848851636,-0.0002128223422914,0.0002482957206666,-0.4948408603668213,0.0937575101852428,9.795451164245604
3.678722858428955,0.0010957703925669,0.0008560679270885,-0.0012333835475146,-0.4867039620876312,0.0837030410766613,9.792557716369627
3.6827127933502197,0.0005644924240186,0.0006416841060854,-0.0007046116515994,-0.4766584634780884,0.061723154038192,9.791529655456545
3.690703868865967,0.0002403915859758,0.0014842313248664,0.0025990265421569,-0.4871840476989746,0.0856551527977001,9.778307914733888
3.6947035789489746,-0.0006122852209955,0.0005329635459929,-6.35096803307534e-05,-0.4962201118469238,0.086228482425214,9.770734786987305
3.6988139152526855,0.0009852435905486,-0.0011711134575307,0.0003538611344993,-0.4957988262176513,0.0842020586133015,9.791600227355955
3.702704906463623,2.387689892202616e-05,-0.0023519243113696,0.0019420739263296,-0.500588595867157,0.0669265389442455,9.799114227294922
3.706702470779419,0.0020473548211157,0.0006370733026415,-0.0001670727506279,-0.491058200597763,0.054424222558738,9.81805419921875
3.71071457862854,0.0003491769311949,-0.0004172921180725,-0.0015597874298691,-0.4867791831493377,0.0701358020305645,9.835245132446287
3.7147297859191895,0.0001340267481282,-0.0003157933242619,-0.0002831341698765,-0.484343945980072,0.0965727716684353,9.810633659362791
3.7188525199890137,0.0006565111107192,0.000322732143104,0.0003607454709708,-0.4972234666347503,0.0948023349046719,9.782221794128418
3.7267026901245117,0.0007769758231006,0.0006447420455515,-0.0013420758768916,-0.4803894758224487,0.1007589250803005,9.728964805603027
3.7347195148468018,2.467469312250614e-05,0.0021218911278992,0.0005776137113571,-0.4876211583614349,0.0943155214190495,9.77406406402588
3.7387256622314453,0.0001353170955553,0.000640343001578,0.0001466539688408,-0.4781032800674438,0.0798248425126087,9.803472518920898
3.746713638305664,0.0001453759614378,0.0007529172580689,-0.0010348595678806,-0.4962822794914245,0.0631469786167156,9.796669006347656
3.7507216930389404,0.0024719545617699,-0.0010657432721927,0.0008847950957715,-0.5001291632652283,0.0659860223531735,9.803805351257324
3.7547285556793213,0.0029031634330749,-0.0004175794310867,-0.0010285251773893,-0.5106009840965271,0.072767347097398,9.77908706665039
3.762711524963379,0.000986456638202,0.0006445598555728,-0.0013410407118499,-0.5071976780891418,0.0906155109405529,9.747396469116213
3.7707176208496094,-0.0002891202457249,0.0004344900371506,-0.0017699648160487,-0.4972244501113891,0.0660351365804684,9.790040969848633
3.7747066020965576,-7.337832357734442e-05,0.0012700245715677,0.0003624609671533,-0.5043963193893433,0.0784349963068974,9.804388999938965
3.7827157974243164,-0.0018870563944801,0.0012824278092011,-0.0008115139789879,-0.5077996253967285,0.0797595679759991,9.821907997131348
3.7867023944854736,0.0005555943353101,-0.0012564768549054,-0.0001864493824541,-0.4953995048999786,0.0711846202611935,9.811121940612791
3.7907094955444336,0.0002414134796708,-0.0010583818657323,-0.0012422879226505,-0.4919840097427368,0.0817549899220478,9.801496505737305
3.7947394847869873,0.0006676771445199,-0.0007387503283098,-0.001454978249967,-0.4962782859802246,0.078955538570882,9.790095329284668
3.7987136840820312,0.0025837067514657,0.000650038535241,-0.000376718584448,-0.4804841876029968,0.0670092552900326,9.790510177612305
3.806703805923462,-8.286710362881422e-05,0.0011730317492038,0.00046859215945,-0.5053489208221436,0.0612921193242085,9.781930923461914
3.8107144832611084,-0.0010364149929955,0.0007395838620141,0.0013138735666871,-0.4901194870471954,0.0864500552415859,9.813368797302246
3.814706563949585,-0.0027251709252595,0.0009514210396446,0.0016263625584542,-0.4913866817951202,0.0908833444118511,9.804949760437012
3.8188467025756836,-0.0008257607696577,0.0002119178534485,0.0002477699890732,-0.4996401667594909,0.0856004357337963,9.79913330078125
3.822702407836914,0.0015139674069359,0.0013755185063928,0.0020700474269688,-0.4895784258842468,0.0970655828714382,9.802970886230469
3.8267505168914795,0.0005575631512328,0.0007323051686398,0.0012250039726495,-0.4905996322631836,0.0845654606819164,9.813820838928224
3.8307077884674072,0.0004543614340946,0.0012796795926988,-0.0008167610503733,-0.476148247718811,0.0784475058317196,9.792465209960938
3.8347065448760986,-0.001569295534864,-0.0012786884326487,0.0008835704065859,-0.4747034311294555,0.0771220922470104,9.771573066711426
3.8387136459350586,-0.0005043857963755,-0.0014867524150758,-0.0008222111500799,-0.4823267459869385,0.0733731314539921,9.758721351623535
3.8427116870880127,-0.0015621095662936,-0.0025453111156821,0.0008640638552606,-0.4818581640720367,0.0728853121399891,9.753987312316896
3.8467135429382324,-0.0019977684132754,-0.0008658593287691,0.0035430737771093,-0.4833146035671234,0.0771144628524792,9.77059268951416
3.8547205924987793,-0.0010371453827247,-0.0014877757057547,0.0004579247906804,-0.4910539984703064,0.0951535105705273,9.80105209350586
3.8587136268615723,0.000129290157929,0.0008478820091113,0.000693688634783,-0.5039463043212891,0.0860996246337902,9.81009292602539
3.8667047023773193,-0.0003961431793868,-0.0008479170501232,-0.0004984410479664,-0.4938822388648987,0.0631343722343456,9.797094345092772
3.870713472366333,0.0018327875295653,0.0001079857465811,-0.0008073104545474,-0.5043985247612,0.0751087144017231,9.795726776123049
3.874767541885376,0.0009847083128988,8.404022082686487e-07,5.08124940097332e-05,-0.4957817792892456,0.0764463022351277,9.812372207641602
3.878713607788086,-0.0012632220750674,-0.0005272714188322,-0.0004204357974231,-0.4765686094760895,0.0716580897569668,9.803234100341797
3.882702589035034,0.0005583019228652,-0.0015925554325804,-0.0016708222683519,-0.4852781295776367,0.0702518522739422,9.813261985778809
3.8907124996185303,-0.0001844560028985,-0.0005354195600375,0.0009907581843435,-0.4958139359951019,0.0788721591234219,9.801405906677246
3.8947205543518066,0.0005593106616288,-0.0006386131863109,3.662100061774262e-05,-0.4919893741607666,0.0922734886407864,9.80482578277588
3.8988704681396484,0.0017312545096501,0.001172196585685,0.0001535098999738,-0.4775793552398681,0.0904833823442471,9.778700828552246
3.9027040004730225,-0.0005037202499806,0.0003227469860576,-0.0009213457815349,-0.4785275757312774,0.0862397551536572,9.763012886047363
3.9067020416259766,-0.0008179552387446,-0.0004189873579889,-0.0001737102866172,-0.4823228418827057,0.0847573578357708,9.769088745117188
3.9107019901275635,-0.0014623738825321,-0.0011665276251733,-0.0008217794820666,-0.49245685338974,0.0789679139852535,9.783363342285156
3.914777994155884,0.0008816893096081,0.0007398396264761,0.001211782451719,-0.4833709001541137,0.0899801105260861,9.795815467834473
3.9228711128234863,-0.001250576460734,0.000956802163273,0.000359992031008,-0.4910286664962768,0.0817489624023449,9.806201934814451
3.926712989807129,0.0009820807026699,-0.0006414105882868,0.0009952615946531,-0.4938923716545105,0.0788926705718052,9.803329467773438
3.9347081184387207,0.0002402698155492,2.631510142236901e-06,-0.0003862883895635,-0.5020076632499695,0.0664948746562016,9.793750762939451
3.9427380561828613,-0.0008229934610426,-0.0017027729190886,-0.0003989553079009,-0.4900470376014709,0.0736941620707523,9.788557052612305
3.950721025466919,2.7393922209739685e-05,-0.0001107155112549,0.0011017136275768,-0.4847674965858459,0.0880691558122646,9.782931327819824
3.9547080993652344,-0.0005132463993504,0.0010614375350996,0.0003598914481699,-0.4752115607261657,0.0923762321472179,9.790593147277832
3.9587180614471436,0.0004544825060293,0.001816320233047,-0.0008044671267271,-0.4761797487735748,0.0770336017012608,9.793374061584473
3.9627020359039307,-0.001353770145215,-0.0005339462659321,0.0003530299291014,-0.4842976927757263,0.0741861388087284,9.785731315612791
3.9707021713256836,-0.0003874253015965,-0.000637428543996,-0.0018805905710905,-0.4900335967540741,0.09404917061329,9.82472324371338
3.9747021198272705,-0.0004042835207656,0.0009567838860675,-0.0004977439530193,-0.4953921437263489,0.0975513309240353,9.80874729156494
3.978713035583496,-0.0007162505062296,0.0010582347167655,0.000259940046817,-0.4957633018493652,0.0923469811677944,9.78914737701416
3.9867022037506104,-0.0007146158022806,-0.0006385757005773,-0.0003922176547348,-0.4737669825553894,0.0789674222469341,9.783862113952637
3.9947080612182617,0.0019475350854918,-0.0006399861886166,0.0008862651884555,-0.4809223711490631,0.0847320109605801,9.784371376037598
3.998718023300171,-7.683865260332823e-05,0.0005267665255814,0.0003839768469333,-0.4996204674243927,0.0818617939949047,9.778141021728516
4.002780199050903,-0.0003946368815377,0.000216138723772,-0.0021885903552174,-0.4953315258026123,0.0856564939022076,9.78200626373291
4.006707668304443,-8.072319906204939e-05,-0.001494619064033,0.0009921938180923,-0.5063675045967102,0.0783641189336788,9.811344146728516
4.010713815689087,-0.0009295607451349,0.0003208449925296,-0.000599842518568,-0.5034916996955872,0.0874302238225949,9.81708526611328
4.01470160484314,-0.0011361767537891,0.0014913433697074,-0.001124205533415,-0.4910338819026947,0.0970890894532215,9.797330856323242
4.018845796585083,-0.0034854835830628,0.0010613033082336,0.0008891769684851,-0.4785420000553131,0.092400260269643,9.776299476623535
4.0227015018463135,-0.0017806350952014,0.0009609107510186,-0.0002760170027613,-0.4751535654067993,0.0824717432260525,9.753000259399414
4.030701637268066,-0.0008308228570967,0.000944884493947,4.569767042994488e-05,-0.4824049770832062,0.075620397925378,9.78477668762207
4.034701585769653,0.000663767394144,-0.0007493440643884,0.0014156904071569,-0.4943249225616455,0.0846791118383419,9.793317794799805
4.038724660873413,0.001408499549143,-0.0009634342859499,0.0016357111744582,-0.511592447757721,0.0789328664541256,9.795206069946287
4.042736530303955,0.0015161023475229,-0.0008525901357643,0.0008891737088561,-0.5034632682800293,0.0784326344728481,9.800411224365234
4.046735525131226,0.0007649665931239,0.0011647270293906,0.0010992013849318,-0.4942577481269836,0.0742560252547276,9.767559051513672
4.0508503913879395,-7.45728611946106e-05,0.0029917999636381,-0.0013323482125997,-0.4818967878818512,0.0727630183100712,9.784782409667969
4.054730653762817,0.0002328167902305,-0.0002196894492954,-0.0013473564758896,-0.4804384410381317,0.0919709280133259,9.78152084350586
4.058727502822876,-0.0004998567746952,0.0011744608636945,-0.0007015047594904,-0.4857482314109802,0.0871556773781788,9.768647193908691
4.066707611083984,-0.0017800035420805,-0.0011664621997624,-0.000820477027446,-0.4933842122554779,0.0646400153636944,9.780413627624512
4.070701599121094,-0.0015617943136021,0.0009751102188602,-0.003472768003121,-0.4804981350898742,0.0764777660369885,9.809433937072754
4.078734397888184,0.0003459462895989,-0.0009591928101144,0.0006741327233612,-0.5034633874893188,0.0597617439925682,9.80270004272461
4.082712650299072,-0.0005163347814232,0.0004191135813016,0.0005890736356377,-0.5044845342636108,0.074103891849519,9.79668140411377
4.086705207824707,-0.0008207312785089,-0.0009564085048623,0.0005597975105047,-0.4781025946140289,0.080918923020364,9.77577781677246
4.090704679489136,0.0027898016851395,-0.0001154413330368,0.0003668121062219,-0.4799493849277496,0.0847123116254818,9.78672981262207
4.0947065353393555,0.0012022869195789,-0.0009528206428512,-0.0015631858259439,-0.4885507225990295,0.0863087773323071,9.749177932739258
4.09953761100769,-0.0002525008749216,0.0009632796281948,0.0017984881997108,-0.4810228943824768,0.0944532305002224,9.781765937805176
4.103512525558472,-0.0006107164081186,0.0011709899408742,-6.291270256042495e-05,-0.4900252223014831,0.0981330722570431,9.77867031097412
4.107514381408691,-0.0008203110191971,0.000854616635479,-0.0005953223444521,-0.4819323420524597,0.0756214559078228,9.784238815307615
4.111524343490601,0.0001091553131118,0.0009457719279453,0.0005700327455997,-0.4799985587596893,0.0711352527141583,9.81741714477539
4.115513324737549,-7.874227594584227e-05,-0.0009594794246368,0.0007801088504493,-0.4905463755130768,0.073627144098283,9.806114196777344
4.119663238525391,0.0009907421190291,0.0005348469712771,-0.0002758656628429,-0.4924967586994171,0.0625569373369229,9.811378479003906
4.123512268066406,-0.0004004280781373,-0.0008570025674998,0.0014167036861181,-0.4847621023654938,0.0742320120334637,9.774286270141602
4.127513408660889,-0.0016757609555497,-0.0011713005369529,0.0004572235047817,-0.482866495847702,0.0670253485441219,9.78092098236084
4.131515264511108,0.000986358616501,-0.0023327921517193,-0.0017803027294576,-0.4847344160079956,0.0761987566947949,9.763835906982422
4.135523319244385,0.0002408399013802,-0.0027796044014394,0.0025819935835897,-0.4866812527179718,0.0765665620565426,9.788047790527344
4.139549255371094,-0.0012646343093365,-0.0025397455319762,-0.0015582628548145,-0.5072932243347168,0.0716077983379376,9.822989463806152
4.1475303173065186,0.0002407588763162,0.0006392658688127,-0.0002765525132417,-0.4968026876449585,0.0998275876045239,9.82852268218994
4.1515092849731445,-0.0002965866588056,0.0020448728464543,-0.0009115664288401,-0.5039731860160828,0.0940415114164364,9.82708740234375
4.15552830696106,0.0001428080722689,0.0009623005753383,-0.000823413953185,-0.4978016018867492,0.0888991728425038,9.81143569946289
4.163525342941284,-0.0016745118191465,0.0027690071146935,-0.0002717715688049,-0.4986571669578552,0.0885201543569576,9.78903865814209
4.171515226364136,-0.0005182243185117,0.000309731636662,0.0032306951470673,-0.4818553924560547,0.0775744765996944,9.767622947692873
4.179525375366211,-0.0002880761167034,-0.0005204443004913,-0.0026257415302097,-0.4958143830299377,0.0731301158666622,9.80797004699707
4.187540292739868,0.0018392910715192,0.0016046519158408,-0.0022929497063159,-0.5111699104309082,0.0692998319864285,9.806007385253906
4.191515207290649,-0.0005098829278722,-0.0011769025586545,0.000356110278517,-0.518740177154541,0.0669880211353314,9.79460906982422
4.19551420211792,0.000255509163253,0.0003972888807766,3.279373049736018e-05,-0.5015825033187866,0.0719022601842892,9.770214080810549
4.203539609909058,-0.0040106526575982,0.0007537878700532,-0.0011509503237903,-0.4884710013866424,0.0615670271217834,9.772198677062988
4.211526393890381,-0.0024141161702573,0.0015978056471794,0.0004454473964869,-0.4865907430648803,0.0791896879673016,9.790816307067873
4.219632387161255,0.0013110405998304,0.0001083774259313,0.0009809685871005,-0.4809284210205078,0.0775823444128048,9.827903747558594
4.227516412734985,-0.0011331946589052,-0.0006311434553936,-0.001156723126769,-0.4966345727443695,0.0858895629644405,9.793638229370115
4.235518455505371,0.000777861685492,0.000974214519374,-0.0016851352993398,-0.4927241206169128,0.0940872058272373,9.778453826904297
4.239527463912964,0.0034411931410431,-0.0006281711393967,-0.0012570940889418,-0.4832397699356079,0.0758429840207111,9.79314422607422
4.243515491485596,-0.0001744221663102,0.0009664600947871,-0.0006191404536366,-0.4669811725616455,0.0786940678954136,9.797454833984377
4.247631788253784,0.0023761242628097,-0.0001031844294629,0.0001268098130822,-0.4703546464443207,0.0675988718867314,9.818317413330078
4.251522541046143,0.0017358568729832,-0.0001041903160512,0.0003436543047428,-0.4894088804721832,0.074370786547662,9.80313205718994
4.255505800247192,0.0019456740701571,-0.0006369322072714,-8.589401841163627e-05,-0.4985447824001312,0.0691193938255322,9.80544662475586
4.259539604187012,0.0026969846803694,-0.0004176501533947,-0.0011506783775985,-0.494269996881485,0.059477247297765,9.817713737487791
4.263510465621948,-0.00049794674851,-0.0006370494957081,0.0004397379234433,-0.4828134179115295,0.0890474319458019,9.834515571594238
4.267519474029541,0.0006702178507111,-0.0008515400113537,0.001294916961342,-0.4823105335235595,0.0953358560800564,9.822670936584473
4.271630525588989,0.0030126199126243,0.0022384808398783,0.0004588514566421,-0.4937211871147156,0.0897717922925961,9.78273105621338
4.275499582290649,-0.0010365255875512,-0.0009597326279617,0.0008660466410219,-0.503260612487793,0.0788343101739895,9.76601791381836
4.279524564743042,-0.0003940315218642,-0.0002150778309442,0.0012733722105622,-0.4948140382766723,0.0802395790815365,9.767812728881836
4.283527612686157,-0.0010288701159879,-0.0006266538985073,-0.001583928707987,-0.4803428947925567,0.085348464548589,9.81117057800293
4.287511587142944,-0.0011374437017366,0.0003181780921295,0.0007681841962039,-0.5024048686027527,0.0862039998173725,9.833498001098633
4.2915685176849365,0.0004650283372029,-0.000107800529804,0.0010870741680264,-0.4941577315330505,0.0944145619869244,9.806900024414062
4.295629501342773,0.0008782794466242,2.8078211471436697e-06,-0.0013970038853585,-0.4847342073917389,0.06888246536255,9.81983757019043
4.2995195388793945,3.043690230697393e-05,-0.0017998641123995,-0.0021138731390237,-0.4971294403076172,0.0637290775775921,9.829631805419922
4.303510665893555,0.0011012670584022,0.0004356650169938,-0.0016815036069601,-0.491341233253479,0.0667728930711758,9.791147232055664
4.307499885559082,-0.0005131596699357,-0.0001017213799059,-0.0002935812808573,-0.4779260456562042,0.0616976246237766,9.758861541748049
4.31151270866394,-0.0008149524219334,-0.0012680123327299,-0.0011579440906643,-0.4798011183738708,0.0616504922509205,9.761663436889648
4.315525770187378,-0.0016720839776098,-0.000197515648324,-0.0026447910349816,-0.4783923923969269,0.0571497641503822,9.789457321166992
4.3235228061676025,0.000248605152592,0.0022500364575535,-0.002524928189814,-0.5042383670806885,0.0748693048954022,9.801562309265137
4.33151388168335,3.385893069207668e-05,0.0024525497574359,-0.0002886340953409,-0.5158131718635559,0.0961907953023922,9.848201751708984
4.3395397663116455,0.0010975343175232,0.0004300404107198,2.260925248265261e-05,-0.4875202476978302,0.0690939053893101,9.813907623291016
4.347517728805542,3.235111944377422e-05,-0.0005282068741507,1.7007812857627933e-05,-0.4836710393428802,0.0954760089516651,9.793608665466309
4.351540803909302,0.0006713582552038,-0.0005325688398443,0.0010848683305084,-0.4759870171546936,0.0864602699875843,9.776467323303224
4.359523773193359,0.0001409518299624,2.8947833925485247e-06,-0.0002974546514451,-0.4850729405879974,0.0740312933921825,9.778775215148926
4.363523721694946,0.0016235627699643,-0.0001192684285342,0.0019285758025944,-0.4856177866458893,0.0686114579439175,9.813334465026855
4.371523857116699,-0.0013493752339854,4.465167876332948e-06,-0.0004074675962328,-0.503840446472168,0.0832642763853085,9.852402687072754
4.3795247077941895,-0.0011349671985954,0.0002231922117061,-0.0015763938426971,-0.4616490304470062,0.0729998499155056,9.795412063598633
4.3835108280181885,-0.000285388668999,0.0011769927805289,-0.0006127292290329,-0.4802674651145935,0.0659125596284878,9.77825164794922
4.387511730194092,0.0003528650850057,-0.000418632524088,-0.0003008116036653,-0.4903094470500946,0.0750214606523525,9.77259922027588
4.391499757766724,0.0017298777820542,-0.0009506547357887,-7.975427433848369e-05,-0.4849735200405121,0.0664314329624188,9.774247169494627
4.395505666732788,0.0001415410079061,0.0001171943731606,-0.0015738275833427,-0.4946435987949371,0.0691942349076283,9.793402671813965
4.399662733078003,0.0019512127619236,0.0024556524585932,-0.00081597128883,-0.487002432346344,0.0782447829842579,9.802491188049316
4.40354061126709,0.0003512516850605,0.0009629415581002,-0.0001875548623502,-0.4937292337417602,0.0676652938127529,9.81145477294922
4.407498836517334,0.0001399732427671,0.0008584227762185,-7.79363326728345e-05,-0.4865038394927978,0.0777781158685696,9.794899940490724
4.411510705947876,0.0006655096658505,9.87557577900589e-05,0.0004388485103845,-0.4993973076343536,0.0864074528217327,9.788289070129396
4.415618658065796,0.0025840301532298,0.0010587569558992,0.0019492823630571,-0.5051444172859192,0.1046543866395962,9.777413368225098
4.419687747955322,0.001727862516418,0.0008583813905715,-0.0009334525093436,-0.5027538537979126,0.0861440971493733,9.76873016357422
4.423637628555298,0.0030105186160653,-0.0028865800704807,0.002888566814363,-0.5046795606613159,0.0749537125229847,9.789640426635742
4.427520990371704,0.0008828387362882,0.0007409170502796,0.0016242722049355,-0.4936384260654449,0.0731133371591579,9.770600318908691
4.43151068687439,0.0001398279564455,0.0006410500500351,-0.0004003811627626,-0.4907843172550201,0.0625677704811108,9.77670955657959
4.435497760772705,0.0009834179654717,0.0009621249046176,-0.0003004646860063,-0.4989521205425262,0.0701331421732914,9.805183410644531
4.439527750015259,0.0009892112575471,-0.0010673005599528,0.0018272185698151,-0.4956431686878204,0.0724146142601979,9.81999969482422
4.4435577392578125,0.0009924212936311,0.0007515728939324,-0.0006111776456236,-0.5018299221992493,0.0748751014471066,9.807173728942873
4.447640657424927,-0.0004980451194569,-0.0003221324295736,-0.0009317523799836,-0.5003849267959595,0.0659342110157024,9.78156852722168
4.451516389846802,-0.0001811976544559,0.0017010276205837,0.0015262211672961,-0.49839648604393,0.0559198819100868,9.766217231750488
4.455509662628174,-0.0016908386023715,0.0008664857014082,0.0002507334575057,-0.5085083842277527,0.0696842819452297,9.769201278686523
4.460302829742432,0.0014369371347129,-0.0004506494151428,-0.0018570825923234,-0.4880349040031433,0.0856312066316616,9.754666328430176
4.468311786651611,0.0010965894907712,0.001598349539563,0.0002444335259497,-0.4869538843631744,0.0879020839929592,9.783013343811035
4.4763123989105225,-0.0006136558949947,0.0015903313178569,0.0014127567410469,-0.4932591915130615,0.0878213047981274,9.819486618041992
4.480303764343262,0.001096099615097,0.0014899399830028,0.000775430817157,-0.4965672492980957,0.0829607248306286,9.818602561950684
4.488300800323486,0.0006721448735333,-0.0009450539946556,-0.002319301245734,-0.487001359462738,0.0685980916023266,9.81805419921875
4.4923036098480225,-0.0013534296303987,-0.0005346435937099,0.0016120770014822,-0.4812507033348083,0.0706324577331554,9.793861389160156
4.496310710906982,0.0024731310550123,-0.0010688186157494,0.0015137675218284,-0.4830886125564575,0.0625642314553272,9.78005599975586
4.5003156661987305,0.0017421660013496,0.0006407066248357,-0.0002878871746361,-0.4883352220058441,0.066530726850034,9.75015640258789
4.504335165023804,-0.0007105090189725,-0.0014623126480728,-0.0015746494755148,-0.4902411103248596,0.0721979066729557,9.754889488220217
4.508304119110107,-0.0005036900984123,-0.0016952804289758,-0.0004122052341699,-0.4849799871444702,0.0784252956509602,9.7601318359375
4.512308120727539,0.0008797287591733,-0.0008553067455068,0.0008699549362063,-0.48935467004776,0.0763714537024509,9.800954818725586
4.51630711555481,0.0007783512119203,0.0005267522647045,0.0010928064584732,-0.4903525710105896,0.0619428344070923,9.819416999816896
4.520421981811523,0.0007769843796268,0.0003218917408958,-8.327886462211613e-05,-0.50901198387146,0.0728731304407131,9.832773208618164
4.5283043384552,-0.0001702022273093,-0.0001107625430449,-0.00040616793558,-0.4855642914772033,0.0782294869422924,9.81009006500244
4.532314300537109,0.0004572038305923,0.000957986805588,0.0005522845312952,-0.4816430211067199,0.0807497650384914,9.765558242797852
4.536314249038696,0.0002437770599499,0.0012699803337454,0.0017347848042845,-0.4864018857479095,0.0760288387537014,9.771060943603516
4.540307283401489,-0.0013465270167216,0.0039427322335541,-0.0007052719593048,-0.5041243433952332,0.0856210812926304,9.75772476196289
4.544317245483398,-0.0014600328868255,0.0017011535819619,0.001307220198214,-0.508930504322052,0.0951011404395115,9.787236213684082
4.548309326171875,-0.0019931164570152,0.0001038408954627,0.0008812439627945,-0.510374128818512,0.0854924023151409,9.791926383972168
4.552443265914917,0.0002416083589196,-0.0011787783587351,0.002254044637084,-0.5147241353988647,0.0739091932773602,9.811339378356934
4.560315132141113,-0.0004062779480591,-0.0007400960894301,-0.000616951379925,-0.5036180019378662,0.1006314158439648,9.78785228729248
4.564314126968384,0.0013105255784466,-0.0005275447038002,-0.0006074267439544,-0.504520833492279,0.1009385138750088,9.773736000061035
4.572305202484131,0.0019455215660855,0.0004233571526128,0.0006768340244889,-0.5011740922927856,0.0894366055727017,9.781279563903809
4.580304145812988,-7.913843728601933e-05,0.0006374679505825,0.0005663600750267,-0.4763004779815674,0.0817364901304256,9.781753540039062
4.5923051834106445,-7.675064262002707e-05,0.0009556287550367,0.0007817782461643,-0.4973889291286468,0.0716168135404598,9.805904388427734
4.596347332000732,-0.002419629599899,0.0001040415954776,0.0004578493535518,-0.4925815165042877,0.0702820196747791,9.782158851623535
4.6043314933776855,0.0022591133601963,0.0007397526642307,0.0018471600487828,-0.4848725199699402,0.075135186314584,9.7650728225708
4.608319520950317,0.0006666976842097,0.0009505010093562,0.0014274907298386,-0.4886779487133026,0.0666540265083324,9.737494468688965
4.61631441116333,-0.0002858012448996,-0.00160266936291,1.7242040485143858e-05,-0.469169557094574,0.0707307308912289,9.792583465576172
4.620433807373047,-0.000608647475019,-0.0010646688751876,0.0003460804000496,-0.4734592735767364,0.0711517035961163,9.80308723449707
4.62831449508667,-0.0013534580357372,0.0018078677821904,0.0004661427810788,-0.4811197221279144,0.0826289504766476,9.804072380065918
4.636305809020996,-0.00145059148781,0.0003238787758164,-0.0012447391636669,-0.4858812093734741,0.0808323323726666,9.777480125427246
4.644326448440552,0.0003567760577425,0.0012761950492858,-0.0001772912219166,-0.4973082542419433,0.0789652392268192,9.763166427612305
4.652312517166138,0.000877697893884,0.0008471013861708,0.0012077190913259,-0.4968646764755249,0.0635816156864178,9.790163040161133
4.660316467285156,0.0006677996134385,-0.0007389172678813,-0.0008221506141126,-0.4844880402088165,0.0552901402115833,9.82103443145752
4.664313793182373,-7.43606360629201e-05,0.0020227404311299,-0.0004906058311462,-0.4973809123039245,0.0596382766962063,9.81247615814209
4.668423414230347,2.3940810933709145e-05,0.0013939805794507,-0.0006931042298674,-0.507455587387085,0.0709891319274914,9.829524040222168
4.672441482543945,0.0011006062850356,0.0010634354548528,0.0016268715262413,-0.4954786002635956,0.077479586005212,9.779496192932127
4.6763014793396,0.0032233502715826,0.0006414392846636,4.080869257450096e-05,-0.4862946271896362,0.0942946001887333,9.763714790344238
4.684330463409424,-0.0011410221923142,0.0013840219471603,-6.890203803777712e-05,-0.4796623587608337,0.0907747447490704,9.8021879196167
